time,seconds_elapsed,z,y,x
1704790059550988800,0.04598876953125,-1.045462992411852,1.0801847617030143,-0.5127177229201421
1704790059560964600,0.055964599609375,-0.604944499990344,1.2011115270242094,-0.43420203928370027
1704790059570940700,0.065940673828125,0.4909790981143713,1.1671434987097977,-0.3208495086090639
1704790059580916700,0.075916748046875,1.7216612952768802,1.23833621904701,-0.17990429333820937
1704790059590891500,0.0858916015625,2.1192934166520834,1.0436749399513006,-0.6584134937189519
1704790059600867800,0.095867919921875,2.0673568931877613,0.7167842880144715,-0.9725910868160426
1704790059610843600,0.10584375,1.7596715847194193,0.5356248800486326,-0.9329887058764695
1704790059620819500,0.1158193359375,1.4387018472641706,0.6738163761645555,-0.21679272087765855
1704790059630795800,0.125795654296875,1.2463064672738313,0.647625119331479,0.22086791616100818
1704790059640771600,0.135771484375,0.4727437687218189,-0.0073816346839070315,0.2307396323612891
1704790059650747600,0.14574755859375,-0.40108956835269927,-0.8066706029057502,0.6815053962972015
1704790059660723700,0.1557236328125,-0.784800131881237,-1.4678545842513442,1.67170717780143
1704790059670699500,0.165699462890625,-1.0581605614215135,-2.0131898341923953,2.93680690061152
1704790059680674600,0.175674560546875,-0.5261842670083046,-1.5971990493059158,2.678815889638662
1704790059690650600,0.185650634765625,0.17935235854387283,0.013997253431379794,0.9184471164353192
1704790059700626700,0.195626708984375,0.63837272233963,0.9359659681215882,-0.44514571383073925
1704790059710602800,0.205602783203125,0.7728057427048682,0.5806716439992189,-0.6079005733169615
1704790059720578600,0.21557861328125,0.4997866739481687,-0.23802725035250186,0.1109204812221229
1704790059730554600,0.2255546875,0.12305354821681976,-0.7541738152101636,0.4075800994157791
1704790059740530700,0.23553076171875,0.09474924475252627,-0.16295885762572287,0.6620820261638611
1704790059750506800,0.2455068359375,0.43766953273117537,0.4076911585748195,0.8213162372432649
1704790059760482600,0.255482666015625,0.3442722871094942,0.14905103604346512,0.5317915489634498
1704790059770458600,0.265458740234375,0.06300853709876537,-0.09697013567239046,0.18004066960159687
1704790059780433700,0.27543359375,0.03338087607622146,-0.3402016766697168,-0.16670898567317052
1704790059790409500,0.285409423828125,-0.17057167071700094,-0.4635922017559409,-0.9137779555805027
1704790059800385800,0.2953857421875,-0.785104083263874,-0.445322385571897,-1.8044262338556347
1704790059810361600,0.305361572265625,-1.4987339989006518,-0.2826800465494394,-1.8363418596848844
1704790059820337700,0.315337646484375,-1.9163824878662823,0.4830336920678615,-0.7726913225449621
1704790059830313700,0.325313720703125,-2.058375714352727,1.3448767316192387,-0.01545724298134446
1704790059840289500,0.33528955078125,-1.523228388687968,1.6823048519223927,0.51790999433361
1704790059850265900,0.345265869140625,-0.47372518097460264,1.8562112200200556,0.40768852822631596
1704790059860241700,0.35524169921875,0.6767921771049499,1.6314713212639091,0.20717209336161613
1704790059870216700,0.365216796875,1.6046990496724842,1.350422675308585,-0.4098851614877581
1704790059880192800,0.37519287109375,1.7210954780876635,0.4896621702969074,-0.011479133130609989
1704790059890168600,0.38516845703125,1.034072998869419,-0.4431505944907665,0.12220394565016031
1704790059900144600,0.39514453125,0.09224047680199146,-0.5663169554322958,-0.5807410559736191
1704790059910120700,0.40512060546875,-1.3779437194406985,-0.662974079632759,-0.9511413254216313
1704790059920096500,0.415096435546875,-2.5290455994099377,-0.6806219645261764,-0.8257903139173984
1704790059930072600,0.425072509765625,-2.824963897716999,-0.3415799792855978,-0.567539044573158
1704790059940048600,0.435048583984375,-2.4562106648236512,-0.07050152320265769,-0.2239506480745971
1704790059950024700,0.445024658203125,-1.995589880093932,-0.08169336382448673,0.20664616979137063
1704790059960000800,0.455000732421875,-1.7012556361079214,-0.24561025282740592,0.23492533881440758
1704790059969975800,0.464975830078125,-1.4353244797855615,-0.5286252304196357,-0.14600874573811887
1704790059979951600,0.47495166015625,-1.200042144227028,-0.877964737790823,-0.4376195561096072
1704790059989927700,0.484927734375,-0.8896306256651878,-1.1698223625302313,-0.39287542836740613
1704790059999903700,0.49490380859375,-0.7448445535898208,-1.257683601334691,-0.3809986742213368
1704790060009879600,0.504879638671875,-0.8206254785001278,-1.2995739470809697,-0.4419413648314774
1704790060019855600,0.514855712890625,-1.096718547874689,-1.299715401378274,-0.36398309588208794
1704790060029831700,0.524831787109375,-1.364820618495345,-0.9599076924622059,-0.05441650371178984
1704790060039807500,0.534807373046875,-1.393679633232951,-0.7443056244075298,-0.022094196777790783
1704790060049783800,0.54478369140625,-1.0182195961773395,-0.7853466598480939,-0.05432108051329851
1704790060059759600,0.554759521484375,-0.25161679976582524,-0.5144534972041845,0.29637846316471694
1704790060069734700,0.564734619140625,0.26085809084177014,-0.34646599776148795,0.408715094795078
1704790060079710700,0.574710693359375,0.4404115249156952,-0.3682780165970325,0.314617153558135
1704790060089686500,0.5846865234375,0.1316921972244978,-0.48885845269858835,0.045537470076978205
1704790060099662600,0.59466259765625,-0.7326952661126852,-0.5236591324448585,-0.30372078875154257
1704790060109638700,0.604638671875,-1.1308096180468796,-0.4252396747469902,-0.3260696909427643
1704790060119614700,0.61461474609375,-0.7759685906499624,-0.07456161224842071,-0.050335810269415374
1704790060129590800,0.6245908203125,-0.32274259234666824,0.35092706882357594,0.2542595693595707
1704790060139566600,0.634566650390625,0.022637363743782044,0.8889286148756742,0.6479008675329386
1704790060149542700,0.644542724609375,0.14623217923045156,1.3099006953060626,1.0448314165100454
1704790060159517700,0.654517578125,0.09527765254080295,1.3814631257385015,1.1593123666927219
1704790060169493800,0.66449365234375,0.15243863265514374,1.2293120778530835,1.1296519724443554
1704790060179469600,0.674469482421875,0.2621463770866394,0.9977028778493404,1.0850029756397008
1704790060189445600,0.684445556640625,0.22914485571682452,0.8568921391457319,0.9806998667307197
1704790060199421700,0.694421630859375,0.008401333120465279,0.679358228200674,0.5335512886449695
1704790060209397500,0.7043974609375,-0.5400625702351332,0.40960663680732246,-0.015079787971079348
1704790060219373800,0.714373779296875,-1.2261626739114522,-0.010896657067537308,0.22869828099310396
1704790060229349600,0.724349609375,-1.6817641691744327,-0.07421499076783657,0.7163949964359402
1704790060239325700,0.73432568359375,-1.8833523249238728,0.5115893399447202,0.8088140446752309
1704790060249300700,0.74430078125,-2.2498598247170447,1.035626658052206,0.7681830513402819
1704790060259276500,0.754276611328125,-2.273992979976535,1.1495809540122748,0.9330725847676395
1704790060269252600,0.764252685546875,-2.0089105494379997,1.1549451113939284,0.7880369218453764
1704790060279229200,0.774229248046875,-1.3812392538547515,0.9306552944928407,0.6603402239978313
1704790060289205000,0.784205078125,-1.070953407499194,0.6181435887813568,0.2583598442852497
1704790060299181000,0.79418115234375,-1.3352438108772038,0.5846744498997927,-0.5848959836959838
1704790060309157000,0.8041572265625,-2.3430583328962324,0.1893091044127941,-0.23799364034384488
1704790060319133000,0.8141328125,-2.682131882318854,0.3632955520093441,-0.12006810266524552
1704790060329109000,0.82410888671875,-2.373637595555186,0.9540817627876996,-0.09650076459497213
1704790060339085000,0.8340849609375,-1.5484496314451097,1.3509388081371783,0.17405308309197426
1704790060349060000,0.84406005859375,-0.7110486669719219,1.5220459009051321,0.5216273343563079
1704790060359036000,0.854035888671875,-0.13940700938552616,1.6013485702008008,0.5075795197814703
1704790060369012200,0.86401220703125,0.3562450489759445,1.3246020053535699,0.06945318319350481
1704790060378988000,0.873988037109375,0.6465953378923237,0.9912965179383754,-0.3685626787573099
1704790060388964000,0.883964111328125,0.6666296795308589,0.8845265805244446,-1.0495964389547705
1704790060398940200,0.893940185546875,0.46696401627659795,0.7952110512584447,-0.45275808853060007
1704790060408916000,0.903916015625,-0.0363366571418941,1.139701365032792,-0.5740162777632475
1704790060418892000,0.91389208984375,0.12302037659958004,1.3168816402345895,-0.15571312428116799
1704790060428868000,0.9238681640625,0.4426825385876,1.3214824120283126,-0.10314765526354312
1704790060438843100,0.933843017578125,0.5804606315970421,1.131972816607356,-0.054800096201896666
1704790060448819200,0.943819091796875,0.7862146748542785,0.7561129665791988,0.08925999968647956
1704790060458795000,0.953794921875,0.6478537404555827,0.46260932819843287,-0.09723170921802521
1704790060468771000,0.96377099609375,0.41108368708994236,0.6727203976213931,-0.31908640792667864
1704790060478747100,0.9737470703125,0.3317623496264219,0.9234007933199405,-0.23587796336412428
1704790060488723000,0.983722900390625,0.4851134209513664,0.9686258364468813,-0.12790858703255653
1704790060498699300,0.99369921875,0.9913397725582123,0.7612152581542729,-0.3284557092964649
1704790060508675000,1.003675048828125,1.4011562527239323,0.4961714060604572,-0.3446124788492918
1704790060518651100,1.013651123046875,1.5088006348848342,0.3943839332342148,-0.5196984121203422
1704790060528627200,1.023627197265625,1.5211878227710722,0.2356727961808443,-0.49520109972357745
1704790060538602200,1.033602294921875,1.3895336194694041,0.06613923633992672,-0.45757893281579015
1704790060548578000,1.043578125,0.760847520820424,-0.06355389602184296,-0.5218430229336023
1704790060558554000,1.05355419921875,0.5245557159584016,-0.06409867042303084,-0.7160363922566175
1704790060568530200,1.0635302734375,0.7300104840081185,0.23326398147344587,-0.02670563609600067
1704790060578506000,1.073506103515625,0.6695487818479537,0.2088981865018606,0.048043023157119745
1704790060588482000,1.08348193359375,0.41762671552523967,-0.13330898477137088,0.1736795736044645
1704790060598458000,1.0934580078125,-0.27647549282088874,-0.13722002073526382,0.0012368483185768127
1704790060608434000,1.103433837890625,-0.7863261724047362,0.7102607314646243,0.4451555045723915
1704790060618410000,1.113409912109375,-0.736689450315386,-0.0301028773188591,0.1332902800709009
1704790060628385000,1.123385009765625,-0.8710439986169338,-1.1905951014459133,-0.02801321156322956
1704790060638361000,1.133361083984375,-1.1093103184223174,-1.6645809791833162,-0.6836182237327099
1704790060648337200,1.143337158203125,-0.6779866475865245,-1.6059224539875983,-0.9505763850152492
1704790060658313000,1.15331298828125,-0.2408886311329901,-1.1985182956606149,0.037407647374272344
1704790060668289300,1.163289306640625,-0.12370704368948936,-0.7395528769224882,0.5545218882203102
1704790060678265000,1.17326513671875,-0.09028583560287952,-0.7367705527275801,0.5607429546922444
1704790060688241000,1.183240966796875,-0.35430648212879895,-0.9143184921979903,0.5142670347213745
1704790060698217200,1.19321728515625,-1.2093291741408407,-0.9184580762207507,0.6142693776965141
1704790060708193000,1.203193115234375,-1.7984490591421722,-0.6950982336461544,0.5628852274179458
1704790060718169000,1.213169189453125,-1.473764685077965,-0.05638298147916793,0.49269408533871173
1704790060728144100,1.22314404296875,-1.130448968040943,0.06063304013907909,0.6052741703361273
1704790060738120200,1.2331201171875,-0.39952801812440153,-0.03394493969976902,0.5325795210033655
1704790060748096000,1.243095947265625,0.2525353759154677,0.023685411491990088,0.2703203311920166
1704790060758072000,1.253072021484375,0.5574173174008726,0.042055180919170376,-0.03266542128324509
1704790060768048000,1.263048095703125,0.32361966744214293,0.657229983022809,0.2454845806211233
1704790060778024000,1.27302392578125,0.4850570145890116,0.21711948688030241,-0.422261535719037
1704790060788000000,1.283,0.15425532668828965,-0.686437957328558,-0.8131634720563888
1704790060797976000,1.29297607421875,0.2619020469367504,-0.6621709465563297,-0.886243321314454
1704790060807952100,1.3029521484375,0.6963254373535513,-0.8013339180529118,-1.2414818235963583
1704790060817927200,1.31292724609375,0.795031603038311,-0.35724048975408074,-0.7735445783734322
1704790060827903000,1.322903076171875,0.11373393120765686,-0.1552852542579174,-0.7116413721680641
1704790060837879300,1.33287939453125,-0.6688666448026895,-0.2252683065444231,-0.7536053676724433
1704790060847855000,1.342855224609375,-0.6275979380860924,-0.1956611037880182,-0.6269856514066457
1704790060857831000,1.352830810546875,-0.1658171696662903,-0.07821896571218967,-0.6288099442243575
1704790060867807200,1.36280712890625,0.17412673285007477,-0.007529226461052894,-0.3850175544738769
1704790060877783000,1.372782958984375,0.48985973869562144,-0.061445525565743446,-0.26597382642030715
1704790060887758800,1.3827587890625,0.8416191666901112,-0.21301029799580573,-0.3706324707686901
1704790060897735200,1.392735107421875,0.7919704619020224,-0.3648720075458288,-0.3747603643536567
1704790060907711000,1.4027109375,0.3668184654384851,-0.373446943667531,-0.29685236428678036
1704790060917686000,1.41268603515625,0.26647826881110664,0.10188859511315822,-0.04776069908440113
1704790060927662000,1.422662109375,0.05222469275593757,-0.8753776439070701,0.15993161875903605
1704790060937638100,1.43263818359375,-0.16156681874543427,-0.023576690420508382,-0.3772574418663978
1704790060947614000,1.442614013671875,-0.30888474738597865,-0.18399989208877085,-0.5878998416870832
1704790060957590000,1.452590087890625,-0.27821137670278545,-0.17886603633165357,0.13499649946689604
1704790060967566000,1.462566162109375,-0.006240647955238819,0.04559972165822983,0.2805307595610618
1704790060977542100,1.472542236328125,-0.2368652208358049,0.07266191610693931,0.476063268533349
1704790060987518000,1.48251806640625,-0.6043611471444368,0.02989887917935848,0.20908406446278094
1704790060997494000,1.492493896484375,-1.031801546806097,-0.01782148789465427,0.005608487531542777
1704790061007469000,1.502468994140625,-1.7080886969983577,-0.1612239966571331,-0.7344213592529296
1704790061017445000,1.512445068359375,0.4674024076938629,-0.12142857736349105,-0.7769640314280987
1704790061027421000,1.5224208984375,-2.1009861910670993,-0.5401730448722839,-0.1501046367496252
1704790061037397200,1.532397216796875,0.12608312517106532,0.6057026248812675,-0.5198562330305576
1704790061047373000,1.542373046875,-0.5347609566956758,0.08038637287914753,0.3820896843284368
1704790061057348900,1.552348876953125,-0.6026701253175735,0.31583529717624187,0.050315059742331504
1704790061067325200,1.5623251953125,-1.1245166553825139,0.32170915764570235,0.09113748399615287
1704790061077301000,1.572301025390625,-1.2619459349542856,0.4060767091155052,-0.051774026378989216
1704790061087277000,1.582277099609375,-0.8932938243478536,0.49279988380074496,-0.20006956788003444
1704790061097253000,1.592253173828125,-0.5907552311182022,0.28657763850986956,0.02564648243188858
1704790061107228200,1.602228271484375,-0.7663853542685508,-0.0056003042250871654,-0.07857143241167068
1704790061117204200,1.612204345703125,-1.202244038185477,-0.027444471764564514,-0.3291197261631489
1704790061127180000,1.622179931640625,-1.850429129487276,0.1179670387327671,-1.0253273823559284
1704790061137156000,1.632156005859375,-0.9727040456712245,0.15632102704644202,0.2564209851771593
1704790061147132200,1.642132080078125,1.8473174272075294,1.333227794879675,-1.5140648390233515
1704790061157108000,1.65210791015625,-2.9406811116963625,-0.9056295743077993,-0.5707499694436788
1704790061167084000,1.662083984375,1.2231225755631923,0.03742167589962482,1.613073494786024
1704790061177060000,1.67206005859375,2.9251246461242437,0.2588783152014017,0.5822802482396364
1704790061187036200,1.6820361328125,2.4417910943269727,0.38698680872023106,0.6671861443698406
1704790061197011000,1.692010986328125,1.7225222960203885,0.6228203484207392,-0.031498131069540976
1704790061206987300,1.7019873046875,0.32194121283590793,0.23910218610763548,0.09441489823162555
1704790061216963000,1.711963134765625,-0.10205079993754625,0.22811901980042457,-0.3078051354557276
1704790061226939000,1.72193896484375,-0.33372458961009976,0.4972475108593702,0.11241232721507549
1704790061236915200,1.731915283203125,-0.2215513318479061,0.6388403398513793,0.4716331771314144
1704790061246891000,1.74189111328125,-0.08432692719846964,0.34836686294674873,-0.3209270673573017
1704790061256867000,1.7518671875,-0.47888358665108677,0.044160044243931766,0.6391869613319635
1704790061266843100,1.761843017578125,-0.5124059170246124,0.11420856298208236,0.8262345505535602
1704790061276819000,1.77181884765625,-0.390733594033122,0.39978257740736006,1.1257236930847168
1704790061286795000,1.781794921875,-0.528162289083004,0.2457458619058132,1.0525964975535869
1704790061296769800,1.791769775390625,-0.18611644585132597,-0.2953203324139118,0.1814274112522602
1704790061306746000,1.80174609375,-0.09599076924622059,-0.3338455856412649,0.07864391312599181
1704790061316722000,1.811721923828125,-0.3573185234263539,-0.6503109974145889,0.36018706459999084
1704790061326697700,1.82169775390625,-0.1257528703033924,-0.43574470214843747,0.015258943930268287
1704790061336674000,1.831674072265625,-0.44337037472128865,-0.46430970237553115,-0.1755360151261091
1704790061346649900,1.84164990234375,-0.0972822703614831,-0.5097299758136272,-0.4128828819990158
1704790061356626000,1.8516259765625,0.2417547464430332,-0.22760522505939004,-0.5119166722029447
1704790061366602000,1.86160205078125,-0.16090309413969517,-0.595688595867157,-0.10768939034640788
1704790061376577800,1.871577880859375,-0.3988835827410221,-0.9137135120421648,0.016757073533535
1704790061386552800,1.881552734375,-0.32526012812554833,-0.9300953225225209,-0.12034721186757087
1704790061396529000,1.89152880859375,-0.3402177510216832,-0.9525450547397136,0.02413666239082813
1704790061406505000,1.9015048828125,-0.4253898968726396,-0.7441875509858131,0.23386720806360242
1704790061416481000,1.91148095703125,-0.5331184501856565,-0.8630161749839782,-0.3738566935122013
1704790061426456800,1.921456787109375,-0.459311747957766,-0.37072424070537086,-1.3454513166368007
1704790061436433000,1.931432861328125,-0.9149407157495617,-0.6426216119557618,-0.02493570381402969
1704790061446409000,1.941408935546875,-0.5799675873830914,-0.8519494220465421,0.6018418577998876
1704790061456385000,1.951385009765625,0.21394319493174552,-0.2889016975432634,0.3047013242214918
1704790061466360800,1.96136083984375,0.27107874834388496,0.4029220444768667,-0.13713526506125925
1704790061476337000,1.9713369140625,-0.06691197427809238,0.15496493626236915,0.2969575782269239
1704790061486312000,1.98131201171875,-0.12161036367118358,0.025869769793748856,0.26163842756450173
1704790061496287700,1.991287841796875,-0.0351221667855978,0.36468145340979097,0.07048574111163616
1704790061506264000,2.00126416015625,-0.378564432811737,0.06871113265454769,-0.0033452187746763227
1704790061516240000,2.011239990234375,-0.7708131075829268,-0.6498913106977939,-0.16380699888765812
1704790061526215700,2.021215576171875,-0.4607712991163134,-0.4570125311046839,0.15204174229204653
1704790061536192000,2.03119189453125,-0.32440058868676425,0.08268179033994674,0.1594809523820877
1704790061546167800,2.041167724609375,0.3024006460636854,0.42939737894833085,0.2167851403594017
1704790061556143900,2.051143798828125,0.023624913476407525,0.1939011083781719,-0.20740707116127013
1704790061566120000,2.061119873046875,-0.24398089805990456,-0.04786182137131691,-0.357482481816411
1704790061576095000,2.071094970703125,-0.16112579697966575,-0.12819149562716484,-0.37256840726733204
1704790061586071000,2.081071044921875,-0.08089987535923719,-0.24611878687143324,-0.36564825261533257
1704790061596046800,2.091046875,0.08801146093010902,-0.11828268055319785,-0.4677765017032623
1704790061606023000,2.10102294921875,0.08497633101791142,0.13368483234643935,-0.5534042823672294
1704790061615999000,2.1109990234375,-0.5936825167417525,0.018044775256514548,-0.7319140526071191
1704790061625974800,2.120974853515625,-0.8336401506349443,-0.17923779225349426,-0.7064566630065441
1704790061635950800,2.130950927734375,0.9337184814557432,0.5687848068505525,-0.24098697694092988
1704790061645927000,2.140927001953125,0.43604953031390903,0.7961264125376939,-0.209697520186007
1704790061655903000,2.150903076171875,-0.15513649343699215,0.5633206962257623,0.08144114262908697
1704790061665879000,2.160879150390625,-0.14873247161358594,0.4662263496518135,0.11400807197391986
1704790061675854000,2.17085400390625,-0.3202174577832222,0.43045361000299454,-0.04117985938936472
1704790061685830000,2.180829833984375,-0.2871308884784579,0.2668330735981464,0.1300166652277112
1704790061695805700,2.1908056640625,-0.041296763767302035,0.2851508205771446,0.1425152045339346
1704790061705782000,2.200781982421875,-0.2063084622696042,0.19596271708309648,0.08775427129864692
1704790061715757800,2.2107578125,-0.5463128628015518,-0.06470365057885646,0.0823681943461299
1704790061725734000,2.22073388671875,-0.7521706586942076,-0.08274784131348133,0.04299392307400703
1704790061735710000,2.2307099609375,-0.4466019039884209,-0.0404769718170166,0.014629413855075836
1704790061745685800,2.240685791015625,0.02204495080858469,0.031190088033676146,0.08984949001222849
1704790061755662000,2.250662109375,0.1436143979474902,0.17345161006748674,0.11666297039687633
1704790061765636900,2.260636962890625,0.1909258919596672,0.3247954332232475,-0.2525400520905852
1704790061775613000,2.270613037109375,0.035089725820720195,0.4490303001791239,-0.6676841570198535
1704790061785589000,2.280589111328125,-0.12769699010848998,0.6319026495426893,-0.8471890757769346
1704790061795564800,2.290564697265625,-0.11861147411614656,0.7740946134716272,-0.9175976599991321
1704790061805540900,2.300540771484375,0.10015373414456843,0.6128980893433094,-1.0122919596940279
1704790061815517000,2.310516845703125,0.14308160624504088,0.241807353413105,-1.3148805295452475
1704790061825492700,2.32049267578125,-0.05049684605002403,0.19124562543332577,-1.4304948676720262
1704790061835469000,2.330468994140625,0.11003653799444436,0.3403086441755295,-1.4969570523560047
1704790061845444900,2.34044482421875,-0.022542671197652814,0.5917506718963385,-0.7312199328631163
1704790061855420000,2.350419921875,-0.0625301059320569,0.500703788793087,0.07664455600231886
1704790061865396000,2.36039599609375,-0.15128624774962662,0.252978735768795,0.17746084570884704
1704790061875372000,2.3703720703125,-0.521144227014482,-0.13445464767515658,0.43713586424589157
1704790061885347800,2.380347900390625,-0.7087374674201011,-0.5654980402648448,0.960362450492382
1704790061895324000,2.390323974609375,-0.5504843032673001,-0.8892290591269731,1.2565113426849246
1704790061905300000,2.400300048828125,-0.03208557556867599,-0.8261433651387691,1.316108317774534
1704790061915275800,2.41027587890625,0.012662205435335635,-0.2992582563847303,1.3654893115371465
1704790061925251800,2.420251953125,0.10629413659572601,-0.05896481466591358,1.1399687837973236
1704790061935228000,2.430227783203125,0.02900836008042097,0.33622400521039963,0.45999885343909264
1704790061945204000,2.440203857421875,-0.2339770981788635,0.40291619925796984,0.26436639122366906
1704790061955179000,2.450178955078125,-0.3384732454419136,0.8454916242092847,0.11278612896353006
1704790061965154800,2.46015478515625,-0.4812003391608596,1.5360335097253321,-0.14689970322847365
1704790061975131000,2.470130859375,-0.624053397347033,2.079394536983967,-0.7389604639872908
1704790061985107000,2.48010693359375,-0.5952759234130383,2.194762791395187,-0.9958259780615567
1704790061995082800,2.490082763671875,-0.5561731625586748,2.1679887662380932,-0.8893275510653853
1704790062005059000,2.50005908203125,-0.9164628107503056,1.5266203692138194,-0.3905272578060627
1704790062015035000,2.510034912109375,-1.014988651432097,1.0096130958735943,-0.2714088570810854
1704790062025011000,2.520010986328125,-0.75775196595788,0.751893887579441,-0.47111470621526236
1704790062034987000,2.529987060546875,-0.3603632979497313,0.5905220068842172,-0.40505788746178145
1704790062044962000,2.539962158203125,-0.07656886041760444,0.40935470787286754,0.08312354275807737
1704790062054937900,2.549937744140625,0.17382541181594133,0.37719898967742915,0.6426308181755245
1704790062064914000,2.559913818359375,0.2342564996421337,-0.019715338817238807,0.7250712009750306
1704790062074890000,2.569889892578125,-0.1578796546652913,0.0858382085442543,0.5815409741796553
1704790062084865800,2.57986572265625,-0.3898503814578056,0.026169629523158072,0.4886414489470422
1704790062094841900,2.589841796875,-0.2876353308692574,0.037222938457131385,0.46750674485117194
1704790062104818000,2.59981787109375,-0.10482377178221941,0.15996318294107914,-0.10455357653871178
1704790062114794000,2.6097939453125,-0.3754065533027053,0.15952537604570388,-0.8796798711456358
1704790062124770000,2.61977001953125,-0.4710685289859771,0.03787526488602161,-0.9894586349867284
1704790062134745900,2.629745849609375,-0.6352633581474423,-0.23420915336906908,-1.0624690722703933
1704790062144721000,2.639720947265625,-0.816188080574572,-0.12312252179980278,-1.5397195047616958
1704790062154697000,2.649697021484375,-0.7474950680986047,0.15722294432222841,-0.8798806544147432
1704790062164672800,2.6596728515625,-0.5587786688819527,-0.03276186739504337,-0.7424586083013563
1704790062174649000,2.669649169921875,-1.0623346322357654,-0.8208686396062373,-0.5644683318909257
1704790062184625000,2.679625,-0.8136509633123874,-0.9151812465071678,0.3560481381643563
1704790062194600700,2.6896005859375,-0.0946130511522293,-0.797392486950755,0.6663632836796343
1704790062204577000,2.699576904296875,-0.1450597744502127,-1.0648942535907029,0.6983413802858441
1704790062214552800,2.709552734375,-0.062248074120283124,-0.8429390171170235,0.9207364694815129
1704790062224529000,2.71952880859375,0.17935455050095914,-0.18539514583945274,0.7169564297109842
1704790062234504000,2.72950390625,-0.222409409981966,0.24528993483185765,0.3658645257145166
1704790062244480000,2.73947998046875,-0.29481092158704997,0.179758601257205,0.49078934769593174
1704790062254455800,2.749455810546875,-0.2777231547944248,-0.05431786564290523,0.05184205011390149
1704790062264431900,2.759431884765625,-0.26840090743675826,-0.09532792142331599,0.04472067380137741
1704790062274408000,2.769407958984375,-0.16849661800861357,-0.05477379271686077,-0.12290654096156357
1704790062284383700,2.7793837890625,0.04608487482666969,0.012829086434841156,-0.2801961938444525
1704790062294359800,2.78935986328125,-0.1716378386437893,0.2617395498514175,-0.5369895194653421
1704790062304335600,2.799335693359375,-0.4917430682241916,0.11254793629348277,-0.3081200831564143
1704790062314311700,2.809311767578125,-0.61633770840317,-0.3072428253978491,-0.3571799917384982
1704790062324287700,2.819287841796875,-0.8236990407265722,-1.0503887583762406,-0.06029650166109204
1704790062334262500,2.829262451171875,-0.42237551748752594,-1.6183949820697308,0.6480827269058674
1704790062344238800,2.83923876953125,0.1357483407475054,-1.5862100377798078,0.8140672890283167
1704790062354214700,2.849214599609375,0.4117021477818489,-1.320586339971423,0.6863334740407765
1704790062364190500,2.8591904296875,0.14554931153282522,-1.1881593987315893,0.7010723396196961
1704790062374166800,2.869166748046875,0.17907544129863381,-1.0486270094007253,0.5023324494408443
1704790062384142600,2.879142578125,0.27895255045890804,-0.8900713551700115,0.3881688215790316
1704790062394119000,2.889118896484375,0.06078311613425612,-0.7401303845494985,0.27208270122203976
1704790062404094700,2.8990947265625,-0.2680677299596369,-0.40456688907444477,0.6364794559389353
1704790062414070500,2.909070556640625,0.06425064611434936,-0.1363321319848299,0.7652689905244857
1704790062424046800,2.919046875,-0.5974691956736147,-0.1384323191344738,0.7068173130124807
1704790062434021600,2.929021728515625,-0.44131066571250555,0.2171498820185661,0.39155404357053336
1704790062443997700,2.938997802734375,-0.4848224751807749,0.5856365729302168,0.021319887937046585
1704790062453973800,2.948973876953125,-0.4936497786283493,0.6517442450881004,-0.20071761999260632
1704790062463949600,2.958949462890625,-0.752313574296236,0.3880944777011871,-0.05562270116377622
1704790062473925600,2.968925537109375,-0.7573955537356436,0.15420330424010753,0.2403364406103268
1704790062483901700,2.978901611328125,-0.117528939576447,-0.04192658610343933,0.040757250063121316
1704790062493877800,2.988877685546875,0.13753668546900152,-0.22228081516623496,-0.08911193298529833
1704790062503853800,2.998853759765625,-0.1544001419864595,-0.41938218089044094,0.07663688415251672
1704790062513829600,3.00882958984375,-0.18613500442132352,-0.4795218845546245,0.06764237091187388
1704790062523804700,3.0188046875,0.06728431472182274,-0.3714893798589706,0.07737036779252812
1704790062533780700,3.02878076171875,1.24526426474452,0.2937134817391634,-0.33520562194809317
1704790062543756800,3.0387568359375,1.1076561214745044,0.6822007581502199,-0.2258153459679335
1704790062553732600,3.048732666015625,0.23713483155742288,0.8791139078259468,-0.013970840348489581
1704790062563708700,3.058708740234375,-0.2498153033018112,0.674222034355998,-0.09643011051155626
1704790062573684700,3.068684814453125,-0.943329482626915,-0.04838613750636577,0.017873693005926904
1704790062583660500,3.07866064453125,-0.44633185487538574,0.12098434072732925,-0.5276033765586092
1704790062593636900,3.088636962890625,0.5226547777079046,-0.031036358776688575,-0.3038490730400197
1704790062603612700,3.09861279296875,0.20391177639141678,-0.6644172641783952,0.06062502579598222
1704790062613588700,3.108588623046875,0.017786854972690343,-0.424236635184288,0.25627975007556375
1704790062623563800,3.118563720703125,-0.051110740164667365,-0.10681903725266456,0.01290257179616019
1704790062633539600,3.12853955078125,0.22311302820667622,0.27591069854497907,-0.3376057784250006
1704790062643515600,3.138515625,0.5482919077895582,0.35432138743698594,-0.38882381488904355
1704790062653491700,3.14849169921875,0.2675121419034898,0.6471814672172069,-0.5479809056116268
1704790062663467500,3.158467529296875,-0.5555937552355229,0.3477706506192684,0.04175851779384538
1704790062673443800,3.16844384765625,-0.4879508363343775,0.5291466239452361,0.9807513046570122
1704790062683419600,3.178419677734375,0.12340543039441108,0.36344109795987606,-0.2006639535766095
1704790062693395700,3.188395751953125,0.38073534711003304,0.6321703605681658,-0.132491457843408
1704790062703371800,3.198371826171875,-0.15709508015885948,0.2707166370332241,0.16008633439671247
1704790062713346800,3.208346923828125,-0.7248819620132446,0.2851391301393509,-0.27009445001427085
1704790062723322600,3.218322509765625,-0.5862485673487187,0.6460808124989271,-0.9218046101696789
1704790062733298700,3.228298583984375,-0.8168504900060594,0.5374859977453946,-0.9551412087127565
1704790062743274800,3.238274658203125,-0.9186090289987623,0.07162322070896625,-0.510865263453871
1704790062753250600,3.24825048828125,-0.8720248263478279,-0.4288222094088793,-0.34803901923187075
1704790062763226600,3.2582265625,-0.7814870618104934,-0.8305044829577207,-0.15149645643420517
1704790062773202700,3.26820263671875,-0.8687491656780243,-0.5591548087179661,-0.010270561058446764
1704790062783178800,3.2781787109375,-0.7056007768295705,0.013093290328979492,-0.16747436228878795
1704790062793154800,3.28815478515625,-0.4825803953424096,0.14119769219458103,-0.13708981848433613
1704790062803130600,3.298130615234375,-0.7017876482822001,-0.2839455364406109,-0.0891265825651586
1704790062813105700,3.308105712890625,-0.7673579986929893,-0.4867126728415489,-0.10061733306832611
1704790062823081700,3.318081787109375,-0.44218832532986996,-0.24371815547049044,-0.0739984984729439
1704790062833057500,3.3280576171875,-0.23964798342213034,0.09258709828257561,-0.44614897258915004
1704790062843033900,3.338033935546875,-0.5483760789416731,-0.06507365293502808,-0.41437984255850313
1704790062853009700,3.348009765625,-0.5357797783493995,-0.7372767486840486,-0.47965230600126085
1704790062862985700,3.35798583984375,0.30691607766151424,-1.389444187620282,-0.7624499145157635
1704790062872961800,3.3679619140625,-0.6122564304389059,-0.8142384078115225,-0.7685182015787809
1704790062882937600,3.3779375,-0.4896434655964374,0.9001555268108844,0.7610162284508347
1704790062892913700,3.38791357421875,0.008612491653114557,1.3093787172585725,0.9884453662909567
1704790062902888700,3.397888671875,-0.8497251701258123,0.6529267328709364,-0.2750251478821039
1704790062912864800,3.40786474609375,-0.011344546965509652,0.571510432422161,-0.5474302494589239
1704790062922840600,3.417840576171875,-0.9166635940194129,-0.4771218376755714,-0.5408638766806573
1704790062932816600,3.427816650390625,-0.7272644732356071,-0.18413491664528844,-0.5322415942858905
1704790062942792700,3.437792724609375,-0.1246773500263691,0.5848375315070152,-0.31058102990984915
1704790062952768800,3.447768798828125,1.1337002249218522,0.7812000615626573,0.13250965108722448
1704790062962744800,3.457744873046875,-1.2914623906873166,-0.7287088268250227,-0.46498058737441894
1704790062972720600,3.467720703125,-2.7739456581413746,-0.5136696533501148,-1.28395888318941
1704790062982696700,3.47769677734375,-1.4102292014956475,1.212371464446187,-1.109425176973641
1704790062992672800,3.4876728515625,-0.8741257441498339,1.4406588265508413,-1.0523131505675614
1704790063002647600,3.4976474609375,-1.428868727774918,0.9433949490785598,-1.2864672127485275
1704790063012624000,3.507623779296875,-1.3539033570311962,1.1392308249115943,-1.0371189424365759
1704790063022599700,3.517599609375,-1.2208277426242828,1.0997668295294045,-1.0577259693965315
1704790063032575500,3.527575439453125,-0.592327595001459,0.968960182967782,-1.0640673012472688
1704790063042551800,3.5375517578125,-1.1114812327206134,0.2620020001798868,-0.8122495720818639
1704790063052527600,3.547527587890625,-1.5600655426979064,0.46895665139853954,-0.5069277778744697
1704790063062504000,3.55750390625,-1.2292365283988416,0.9412941774070263,-0.7101869355760514
1704790063072479700,3.567479736328125,-0.7790111732162535,0.327754283028841,-1.1237820574976503
1704790063082455600,3.57745556640625,-0.0196808520257473,-0.015496844339370727,-0.4751360706858337
1704790063092430600,3.5874306640625,0.7118621753118932,-0.32716683852970596,-0.7033636654272675
1704790063102406700,3.59740673828125,1.4226640279158949,-0.46894554548263545,-0.6601612141691148
1704790063112382700,3.6073828125,1.9514121540628373,-0.63742170522511,-0.4736988774895668
1704790063122358800,3.61735888671875,1.7237641127750276,-1.2638725191026925,0.14509499189406633
1704790063132334600,3.62733447265625,1.4565969849169254,-1.685491665264964,0.7962050307318568
1704790063142310700,3.637310546875,1.2632969111718237,-1.409769182768464,0.7530971258893608
1704790063152286700,3.64728662109375,0.8947839167751371,-0.9297492855638265,-0.04463613732308149
1704790063162262800,3.6572626953125,-0.03319602102860808,-0.01052314758002758,-0.4617066802702844
1704790063172238600,3.667238525390625,-0.5511375064790248,0.861589941573143,-0.5698552125610411
1704790063182214000,3.6772138671875,-0.835642868759483,0.8841980792224406,-1.0334857005007565
1704790063192189700,3.687189697265625,-0.844789905680716,1.3860861093640326,-0.9623942485809326
1704790063202165500,3.69716552734375,-0.656163230574131,1.6397954974949358,-1.7939280745863913
1704790063212141800,3.707141845703125,-0.6390295788131654,2.0908423981934785,-1.6639624088935554
1704790063222117600,3.71711767578125,-0.5716567090250552,1.9726187543511389,-1.1054276317700742
1704790063232093700,3.72709375,-0.7982453043878078,1.742355708259344,-1.8613608578681944
1704790063242069800,3.73706982421875,-0.6561002483405173,1.5909090092509983,-2.7451392503738403
1704790063252045600,3.747045654296875,-0.613482611232996,1.874924103796482,-2.4493650367125865
1704790063262022000,3.75702197265625,-0.6235341957785189,1.9600620551168917,-2.0174068673655388
1704790063271997700,3.766997802734375,-0.46205184044614434,1.3013783661544323,-2.195562125079334
1704790063281973000,3.776972900390625,-0.5447977820634842,1.061786935225129,-1.9361217920809983
1704790063291949000,3.786948974609375,-0.51908700222373,0.8860282172590493,-1.8693691000178456
1704790063301924900,3.7969248046875,-0.5605610222540796,0.794621268671751,-2.030605371634662
1704790063311901000,3.80690087890625,-0.6103063923496752,0.8063233969032764,-1.9912357765376567
1704790063321877000,3.816876953125,-0.5346726938903331,0.7338695705890655,-2.011029587418586
1704790063331852800,3.826852783203125,-0.5522468559604138,0.7454577170521021,-2.1076392192155122
1704790063341829000,3.8368291015625,-0.5569358905594796,1.0507710356920956,-2.1490793369762597
1704790063351805000,3.846804931640625,-0.644286914819479,1.231028818643093,-2.2665790504582226
1704790063361781000,3.856781005859375,-0.7643710918366908,1.0539420669436455,-2.1485409923158585
1704790063371757000,3.866757080078125,-0.8853156120102852,0.7949597068458795,-1.8617150781333445
1704790063381732000,3.876732177734375,-1.0460323167324066,0.5227502009063959,-1.7383925037167964
1704790063391708000,3.8867080078125,-1.1562322285950184,0.3536357432603836,-1.5456006717547774
1704790063401684000,3.89668408203125,-1.1363234130322932,0.255043267083168,-1.5327140099138021
1704790063411660000,3.906659912109375,-1.3176210604250431,0.20261691427528858,-1.5437223106622695
1704790063421635800,3.9166357421875,-1.4061445625305176,0.18570669600665568,-1.4655939458429812
1704790063431612000,3.92661181640625,-1.5206798732489346,0.17021628140807152,-1.4206765073604881
1704790063441588000,3.936587890625,-1.5508751050263643,-0.025334347742795943,-1.17094406003654
1704790063451563800,3.946563720703125,-1.5901532224476336,-0.21544892331957816,-0.9286708426773548
1704790063461540000,3.9565400390625,-1.603255865126848,-0.3392693642556667,-0.9691555594094097
1704790063471515000,3.966514892578125,-1.5809019944995641,-0.5278717817038298,-1.0653688122998923
1704790063481491000,3.976490966796875,-1.583013287565112,-0.7594184378653764,-1.0921193104509264
1704790063491467000,3.986467041015625,-1.494157192504406,-0.8802104708909988,-0.8596439220719039
1704790063501442800,3.99644287109375,-1.4425976856589315,-1.0358499454140662,-0.7126981146793812
1704790063511419100,4.006419189453125,-1.375744163569808,-1.0327958185404538,-0.7058939145572483
1704790063521395000,4.01639501953125,-1.3526532108396292,-1.1262591151356696,-0.6007006518755108
1704790063531370800,4.026370849609375,-1.3036691074401139,-1.3397440449059008,-0.4110487619070336
1704790063541347000,4.03634716796875,-1.1575684456348418,-1.4647656783252954,-0.32664610259123145
1704790063551323000,4.046322998046875,-1.1966659457921982,-1.5194547153681515,-0.30148338508829475
1704790063561299000,4.056298828125,-1.137390750002861,-1.4187334104686975,-0.3886324570354074
1704790063571274000,4.06627392578125,-1.1910405801910906,-1.422018423488736,-0.4274769322797656
1704790063581250000,4.07625,-1.145681097029522,-1.4360960486799477,-0.30566436056736856
1704790063591225900,4.086225830078125,-1.0658394985515625,-1.5440788690149783,-0.3311016206953674
1704790063601202000,4.096201904296875,-1.04720077598989,-1.7194243300050496,-0.4383690227700397
1704790063611178000,4.106177978515625,-1.080807788972184,-1.889907737916708,-0.5792489177197218
1704790063621153800,4.11615380859375,-1.0253132807653396,-2.003756819936633,-0.7535358826328069
1704790063631129900,4.1261298828125,-1.0516080710381268,-2.2192238634347916,-0.6835142519015819
1704790063641106000,4.13610595703125,-1.0577760190833359,-2.2005513116687534,-0.42596382430307567
1704790063651082000,4.14608203125,-1.0673825632750988,-2.143404360079765,-0.08723258551210164
1704790063661057000,4.15605712890625,-1.2077524994086473,-2.1709406017810107,-0.15427227782309055
1704790063671032800,4.16603271484375,-1.1831418628305197,-2.039128577569127,-0.005509849462658167
1704790063681009200,4.176009033203125,-1.233787177440524,-2.1407605675727126,0.14081965266242621
1704790063690985000,4.18598486328125,-1.0558306571692229,-2.0350486147791145,0.17940175064355135
1704790063700960800,4.195960693359375,-1.077168044230342,-2.0368997956037522,0.30817703750804065
1704790063710937000,4.20593701171875,-1.201919628536701,-2.1024726302325725,0.4393761905185878
1704790063720913000,4.215912841796875,-1.141431038369611,-1.9318875155121087,0.6653871321238577
1704790063730889000,4.225888916015625,-1.1338094574499875,-1.7176140657126902,0.8148045172616839
1704790063740865000,4.235864990234375,-1.2526397619485854,-1.7476555682331323,0.8589889652945101
1704790063750840800,4.2458408203125,-1.3108265779793262,-1.7603554753303527,1.032338722422719
1704790063760815900,4.25581591796875,-1.3342284963548183,-1.6285907973915337,1.2242976106919348
1704790063770792000,4.2657919921875,-1.2856506356686352,-1.3058686633110046,1.2760560011103748
1704790063780768000,4.27576806640625,-1.3058955513179302,-1.1613625772207974,1.3447633343726395
1704790063790744000,4.285744140625,-1.242327042248845,-1.2439327238798141,1.4816218283191323
1704790063800720000,4.295719970703125,-1.1712742418389768,-1.294111005499959,1.5812389713689683
1704790063810696000,4.305696044921875,-1.109767999061942,-1.2521470099955796,1.5584949323803186
1704790063820672000,4.315672119140625,-1.0479658420782536,-1.2564590279757977,1.584811276897788
1704790063830648000,4.32564794921875,-0.9336368675868958,-1.2666028208494187,1.7020923791930078
1704790063840623900,4.335623779296875,-0.82877831675224,-1.1848773083209991,1.7422984251141547
1704790063850599200,4.34559912109375,-0.7088480151224881,-1.0388596486240624,1.7822437742725015
1704790063860575000,4.355574951171875,-0.6407797834813594,-0.9077788612961769,1.7870099657610057
1704790063870550800,4.36555078125,-0.606964680706337,-0.8735498439580202,1.8284549058273434
1704790063880527000,4.375527099609375,-0.5295867689281701,-0.8059405350655316,1.831325785088539
1704790063890503000,4.3855029296875,-0.5041926538221537,-0.7900204968780279,1.7101128963023424
1704790063900478700,4.395478759765625,-0.49230004451982673,-0.6451356406033039,1.6477119697079061
1704790063910455000,4.405455078125,-0.48405368276536465,-0.5140723889321088,1.621885746794939
1704790063920430800,4.415430908203125,-0.5170528295150026,-0.5559960524260997,1.5700132284775374
1704790063930407200,4.4254072265625,-0.5191050858696923,-0.6199561911612749,1.6080048132196068
1704790063940383000,4.435383056640625,-0.47420507344603535,-0.5536930361807346,1.65153737321496
1704790063950358000,4.44535791015625,-0.47564825799167154,-0.4728711944937706,1.6209584028169512
1704790063960334000,4.455333984375,-0.5020744195591658,-0.49244566353559494,1.5767703015223145
1704790063970310000,4.465309814453125,-0.4961871516188606,-0.5027788415014743,1.605679000620544
1704790063980286000,4.475285888671875,-0.5036397691797465,-0.5096218392640351,1.602232367298007
1704790063990262000,4.485261962890625,-0.494183410581015,-0.46401861047446724,1.6317296799391507
1704790064000237800,4.49523779296875,-0.4644944112926721,-0.4021937302023172,1.625979445849359
1704790064010214000,4.5052138671875,-0.46590778522193427,-0.3543628884911537,1.60712218516618
1704790064020190000,4.51518994140625,-0.46192364748921244,-0.3306125950694084,1.6307392075970768
1704790064030166000,4.525166015625,-0.4774877483785152,-0.2910550761848688,1.60185359711349
1704790064040142000,4.53514208984375,-0.49016427460014816,-0.2897784803777933,1.587468805669248
1704790064050117000,4.5451171875,-0.4358966413071379,-0.3187356947928667,1.6148393354147672
1704790064060093000,4.555093017578125,-0.44440903358664363,-0.2837392002135515,1.5295970469370483
1704790064070068700,4.56506884765625,-0.41658929876890033,-0.2844850501447916,1.482890533080697
1704790064080045000,4.575045166015625,-0.3434281644355506,-0.3414361869007349,1.47558313267678
1704790064090020900,4.585020751953125,-0.3295323986172676,-0.36870822470784187,1.4051748407155276
1704790064099997000,4.594996826171875,-0.29405140845663846,-0.37532092084586616,1.247550914376974
1704790064109973000,4.604972900390625,-0.25391923148930073,-0.3120914344727993,1.058023491038382
1704790064119948800,4.61494873046875,-0.2103051306903362,-0.26247838551998137,0.9577391162514686
1704790064129925000,4.624925048828125,-0.21825470145530998,-0.28289631964862344,0.9150172881171107
1704790064139900000,4.63489990234375,-0.24979309147000311,-0.29803251398205755,0.8660492590695619
1704790064149876000,4.6448759765625,-0.29474874307103455,-0.2799222722738981,0.8118705096364021
1704790064159852000,4.65485205078125,-0.32141514313519,-0.25206629709899425,0.7175164016813039
1704790064169827800,4.664827880859375,-0.36560624010451137,-0.2492757895976305,0.6409767673581839
1704790064179804000,4.674803955078125,-0.3806927500773221,-0.1919452981352806,0.5448299307674169
1704790064189780000,4.684780029296875,-0.391103011867404,-0.17591887696385383,0.44128509287983175
1704790064199756000,4.694756103515625,-0.37212300158739087,-0.15875088454186914,0.40312136644124985
1704790064209732000,4.704732177734375,-0.3686146281402558,-0.1577946067303419,0.3534650628685951
1704790064219708000,4.7147080078125,-0.3948211556077003,-0.13690788604617118,0.2500043961331248
1704790064229684000,4.72468408203125,-0.4018851026445627,-0.07048106493651866,0.12139496735483407
1704790064239658800,4.73465869140625,-0.41066169881820674,0.02272153489589691,0.01346066233664751
1704790064249635000,4.744635009765625,-0.42096272808015345,0.11833353395760059,-0.06612111616134643
1704790064259611000,4.75461083984375,-0.4675361901413649,0.09808335761129855,-0.12916414005160332
1704790064269587000,4.7645869140625,-0.4500034560602158,0.028384967485070228,-0.22452537922263144
1704790064279563000,4.77456298828125,-0.3738140234142542,0.059386839470267294,-0.3727282740041613
1704790064289538300,4.784538330078125,-0.33908808940462765,0.14456395375728606,-0.5440542702198028
1704790064299514400,4.794514404296875,-0.33592933311276135,0.19325521169006823,-0.6493199405506253
1704790064309490400,4.804490478515625,-0.285347804453969,0.22023849568367004,-0.7276403208106755
1704790064319466200,4.81446630859375,-0.25535364820659157,0.16730360883176326,-0.8181186102457344
1704790064329441300,4.824441162109375,-0.20118834277689457,0.1092395423978567,-0.7795397271350025
1704790064339417300,4.834417236328125,-0.12184826408028603,0.16613105792105196,-0.7988402015410363
1704790064349393400,4.844393310546875,-0.10424597189426421,0.24145605575740337,-0.946016822014749
1704790064359369500,4.854369384765625,-0.122970107717067,0.2550871062248945,-1.0389189775958656
1704790064369345500,4.864345458984375,-0.08043371915221213,0.27501053483486176,-1.1089939459495246
1704790064379321300,4.8743212890625,-0.07468553088903426,0.29637130277156826,-1.1968942015901207
1704790064389297400,4.88429736328125,-0.04786430558934807,0.26532091546952724,-1.230663492462039
1704790064399273500,4.8942734375,-0.005491729284077883,0.3198544696897268,-1.2374427773386238
1704790064409249300,4.904249267578125,0.041770372628420586,0.42902328493893144,-1.3035213695324956
1704790064419225300,4.914225341796875,0.07928396459519862,0.5291904630869627,-1.3305359254471958
1704790064429200400,4.924200439453125,0.1307599578756839,0.623989976722002,-1.377466603448242
1704790064439176400,4.934176513671875,0.16143910071253775,0.7681804209917783,-1.406333655361831
1704790064449152500,4.944152587890625,0.17760054644048212,0.8543962306767702,-1.4556946292497217
1704790064459128300,4.95412841796875,0.16506138286292552,0.8239853103220462,-1.5089830057144165
1704790064469104400,4.9641044921875,0.17455051122009754,0.7639484825104474,-1.4802442563556133
1704790064479080400,4.97408056640625,0.20571604933440685,0.6410761360794306,-1.4059529854811728
1704790064489056300,4.98405615234375,0.17411336191184817,0.5707511384874582,-1.3580353422693907
1704790064499032600,4.994032470703125,0.1598375838000327,0.4400245714247226,-1.239551001664251
1704790064509008400,5.00400830078125,0.1551050753854215,0.2557511230915785,-1.0849860245049
1704790064518984200,5.013984130859375,0.06762377580925821,0.0933107363820076,-0.8850454898320138
1704790064528959500,5.02395947265625,-0.003991042397543788,-0.07268354341685772,-0.6481121721960604
1704790064538935300,5.033935302734375,-0.061158086926490066,-0.12387713955938816,-0.32917437895983453
1704790064548911400,5.043911376953125,-0.124811790060997,-0.09569266308248042,-0.03474427338391542
1704790064558887400,5.053887451171875,-0.14330138647556304,-0.16909633746743202,0.31665757334455846
1704790064568863500,5.063863525390625,-0.19302841719686983,-0.3187783648908138,0.6154680859617888
1704790064578839300,5.07383935546875,-0.223766231418401,-0.315613178858161,0.8011404413074255
1704790064588815400,5.0838154296875,-0.32879297842681404,-0.31665070521235467,0.9763972011007368
1704790064598791400,5.09379150390625,-0.3858072435468435,-0.297233472558856,1.274696403194964
1704790064608767500,5.103767578125,-0.4110340392619371,-0.25826222912967206,1.6083089107327162
1704790064618742500,5.113742431640625,-0.473118447253108,-0.2514800216436386,1.876264997011423
1704790064628718300,5.12371826171875,-0.5125596462816,-0.20340192717313765,2.1152985017970205
1704790064638694400,5.1336943359375,-0.6169833128303289,-0.1989589762896299,2.271389227218926
1704790064648670500,5.14367041015625,-0.7073340303629636,-0.4112918134152889,2.4238768135823308
1704790064658646300,5.153646240234375,-0.8208521999280899,-0.672586542108655,2.6748279890462756
1704790064668622600,5.16362255859375,-0.8639765444487333,-0.8448445584774017,2.8795161566376684
1704790064678598400,5.173598388671875,-0.8938449554245919,-0.9806973825126886,3.053106298393011
1704790064688574200,5.18357421875,-0.9372241514891385,-1.133983571907878,3.17571327188611
1704790064698550500,5.193550537109375,-0.8867121078699827,-1.286758889171481,3.2743568937286733
1704790064708525300,5.203525390625,-0.9586176526516675,-1.3516338046640157,3.292603036776185
1704790064718501400,5.21350146484375,-0.9419270684830844,-1.2888462168395518,3.3196856894910334
1704790064728477400,5.2234775390625,-0.9441413835316896,-1.348031980779767,3.3234657925516364
1704790064738453500,5.23345361328125,-0.9314397228688001,-1.5226105490505695,3.315027634552121
1704790064748429300,5.24342919921875,-0.895395911193639,-1.71162797704041,3.2455753281414506
1704790064758405400,5.2534052734375,-0.8506875854171813,-1.8183219266086816,3.1315067581519482
1704790064768381400,5.26338134765625,-0.8259272381700575,-1.8607699062377214,2.95297536060214
1704790064778357500,5.273357421875,-0.8587528184510766,-1.9004905067294835,2.809850207476318
1704790064788333300,5.283333251953125,-0.8960241260945796,-1.9121821135669945,2.7741566705435514
1704790064798309400,5.293309326171875,-0.8732096522182226,-1.813295038357377,2.7619930622801183
1704790064808284400,5.303284423828125,-0.8101005773544311,-1.5592986499786377,2.7433260634720322
1704790064818260500,5.313260498046875,-0.7491384513914585,-1.254287529155612,2.7223160086691376
1704790064828236300,5.323236328125,-0.6958784242384135,-0.9380828141450881,2.6969375295236704
1704790064838212600,5.333212646484375,-0.6271773745864629,-0.7457739433944225,2.659009657667577
1704790064848188400,5.3431884765625,-0.5965975274056196,-0.7143798572212458,2.5560136858344076
1704790064858164200,5.353164306640625,-0.5294857927717268,-0.6558832445889711,2.4444630900152027
1704790064868140500,5.363140625,-0.4790056055955589,-0.6702081225395202,2.3078782984435557
1704790064878116400,5.373116455078125,-0.432013698926568,-0.748164053401351,2.115024653291702
1704790064888092400,5.383092529296875,-0.3645347384154796,-0.7703495817244053,1.8839929609149693
1704790064898067500,5.3930673828125,-0.2751702554412186,-0.837066910213232,1.6526085095778107
1704790064908043300,5.403043212890625,-0.2587250243358314,-0.8672188873708248,1.4178781088136136
1704790064918019300,5.413019287109375,-0.21790815303996203,-0.840589823642373,1.188471898746863
1704790064927995400,5.422995361328125,-0.17625556157231329,-0.852218302115798,0.9426617394331842
1704790064937971500,5.432971435546875,-0.12251520355641841,-0.903705328246951,0.7388299694754182
1704790064947947500,5.442947509765625,-0.13123437045440078,-1.02888653614223,0.5011628576721996
1704790064957923300,5.45292333984375,-0.12671850046515465,-1.0489140096485614,0.18605589303681624
1704790064967899400,5.4628994140625,-0.08580971310213208,-0.9467799153417348,-0.11762688352558762
1704790064977875500,5.47287548828125,-0.06952493325546383,-0.875461815059185,-0.3966545815799385
1704790064987851300,5.482851318359375,-0.04436871855854988,-0.8411860359698533,-0.6794294668059796
1704790064997826300,5.492826416015625,-0.055503860557079315,-0.7872083620667457,-0.9784493113249539
1704790065007802400,5.50280224609375,-0.0275463247038424,-0.7228478258371352,-1.2824138457044958
1704790065017778400,5.5127783203125,0.011664134308695792,-0.6426648665755986,-1.5571914485663174
1704790065027754200,5.522754150390625,0.03806684193536639,-0.582984012594819,-1.8287211555480956
1704790065037730600,5.53273046875,0.07416589092910289,-0.5158019892036915,-2.085691883562505
1704790065047706400,5.542706298828125,0.0874867064036429,-0.4913046768069267,-2.3834020337224007
1704790065057682400,5.552682373046875,0.03642623512148857,-0.43005964224934573,-2.6256381339415906
1704790065067658500,5.562658447265625,0.053383361271768806,-0.2849824782729149,-2.728608094550669
1704790065077634300,5.57263427734375,0.09455474509373307,-0.11169161172509193,-2.847757913327217
1704790065087610400,5.5826103515625,0.11269698937535286,0.06804945387542248,-3.0660379684194923
1704790065097585400,5.59258544921875,0.10766133329570293,0.24411446131169795,-3.252540490978956
1704790065107561500,5.6025615234375,0.1316011579401791,0.3607096271693706,-3.4347339181676504
1704790065117537500,5.61253759765625,0.16135449116900563,0.373760247400403,-3.6587604079574345
1704790065127513300,5.622513427734375,0.15965002533867953,0.38013562765121456,-3.83268022005856
1704790065137489400,5.632489501953125,0.1365725166119635,0.35991876905262465,-3.997800055110454
1704790065147465500,5.642465576171875,0.15651523444429039,0.2668295664668083,-4.190244534939527
1704790065157441300,5.652441162109375,0.14285188914239405,0.18355097927749156,-4.316224199736118
1704790065167417300,5.662417236328125,0.1060517061419785,0.09188742558062075,-4.454042770886421
1704790065177393400,5.672393310546875,0.11808759637251495,0.04927870243191719,-4.593008466245234
1704790065187369500,5.682369384765625,0.23645021029412744,0.03343056043684482,-4.609029918980598
1704790065197344300,5.69234423828125,0.3029670477747917,0.0712812754034996,-4.542821709057688
1704790065207320600,5.702320556640625,0.34345103385448456,0.13492694136202335,-4.578082115270197
1704790065217296400,5.71229638671875,0.3623008418835699,0.18564765929579732,-4.5781052038848395
1704790065227272400,5.7222724609375,0.39828042921610174,0.24793138925135133,-4.556160206319391
1704790065237248500,5.73224853515625,0.3707143038332462,0.22846505675911902,-4.5284950775414705
1704790065247224300,5.742224365234375,0.3529278872519731,0.23513737412989139,-4.4540717047199605
1704790065257200400,5.752200439453125,0.3419453054666519,0.22482640799582004,-4.354524996557831
1704790065267176400,5.762176513671875,0.28738318273909386,0.2564975575447082,-4.182334784728289
1704790065277152300,5.77215234375,0.2569412096589804,0.38761458522975445,-3.9706846691697835
1704790065287128000,5.782128173828125,0.2644511468976736,0.6031739831864833,-3.8026922012910243
1704790065297104000,5.792103759765625,0.2384960369080305,0.8350017943769693,-3.597683715704083
1704790065307079700,5.80207958984375,0.21175357593297958,1.0587795701026916,-3.442495492079854
1704790065317056000,5.812055908203125,0.15007175739333034,1.183698912191391,-3.309503902694583
1704790065327031800,5.82203173828125,0.10057400538325309,1.1988847908854483,-3.1773797437936064
1704790065337007900,5.8320078125,0.022025953847169873,1.1287152761161328,-3.0984324638068674
1704790065346984000,5.84198388671875,-0.04267141312137246,1.0148264466077088,-3.059965662768483
1704790065356959700,5.851959716796875,-0.1183464665044099,0.7818418665975332,-3.0052623049393294
1704790065366936000,5.86193603515625,-0.17579605430178344,0.5722521907001733,-2.969307486721873
1704790065376912000,5.871911865234375,-0.21062069944553077,0.41056291461884975,-2.9554812059432267
1704790065386887000,5.881886962890625,-0.23201420060805975,0.1148994678556919,-2.9405303050488234
1704790065396863000,5.891863037109375,-0.20620938580930231,-0.16975334007143975,-2.914348985087871
1704790065406838800,5.9018388671875,-0.23920681552588938,-0.40129765814542767,-2.889642413854599
1704790065416814800,5.91181494140625,-0.29348895226828753,-0.5729027635633945,-2.8534324518322944
1704790065426791000,5.921791015625,-0.3107096247255802,-0.7297352472633123,-2.8191400138691067
1704790065436767000,5.93176708984375,-0.3339684083033353,-0.8349486028850078,-2.7698107502937317
1704790065446743000,5.941742919921875,-0.360134457629919,-0.8600894738823175,-2.6337340543746945
1704790065456718800,5.95171875,-0.39361762503683567,-0.8000929780811071,-2.456466393150389
1704790065466695000,5.96169482421875,-0.4138548688363284,-0.6810159322798252,-2.2181348991543053
1704790065476671000,5.9716708984375,-0.4615583578407764,-0.513792402946949,-2.039792009913921
1704790065486646000,5.98164599609375,-0.4935532594513148,-0.25209552319347855,-1.8175119254000485
1704790065496621800,5.991621826171875,-0.5121796339880674,-0.020362989071011542,-1.6019538426175712
1704790065506598000,6.001597900390625,-0.5634674112200737,0.16084639551639557,-1.3924473149590193
1704790065516574000,6.011573974609375,-0.5996563304543495,0.28442484439015386,-1.2094792501360176
1704790065526549800,6.0215498046875,-0.6276163505256176,0.3140513363689184,-1.0444139217503368
1704790065536526000,6.031526123046875,-0.6704056909382343,0.2595528534621,-0.8628376035466789
1704790065546502000,6.041501953125,-0.6693745943248272,0.20863748973906038,-0.6465489414673298
1704790065556478000,6.05147802734375,-0.6984270858079195,0.11202011302709579,-0.4574972458817064
1704790065566454000,6.0614541015625,-0.6667968527913093,0.019956746357679366,-0.3014332623362541
1704790065576429800,6.071429931640625,-0.6358276409666985,-0.12224866157472133,-0.16336305451244115
1704790065586404900,6.08140478515625,-0.6019721331160515,-0.24722411776483058,0.005152998849004507
1704790065596381000,6.091380859375,-0.600893763294816,-0.36527941930294033,0.16092735179811715
1704790065606356700,6.101356689453125,-0.6327876156836748,-0.4589812008291483,0.32162527875453234
1704790065616333000,6.1113330078125,-0.7017109297841787,-0.5584568895816803,0.4997796596854925
1704790065626308900,6.121308837890625,-0.7366642428088933,-0.5913888528466225,0.6791594907581806
1704790065636285000,6.131284912109375,-0.7874813337892294,-0.6060919164597988,0.8547152334980667
1704790065646261000,6.141260986328125,-0.8340747426599263,-0.6538982082515955,1.0322972213685513
1704790065656236800,6.15123681640625,-0.8700017230223864,-0.6818669961512088,1.204087035703659
1704790065666212900,6.161212890625,-0.8710954365432262,-0.7176222001433372,1.3519602601394056
1704790065676188000,6.17118798828125,-0.9015379210799932,-0.8099182065248489,1.5492252919927239
1704790065686164000,6.1811640625,-0.8544973529636859,-0.8420674949795007,1.8140142925426364
1704790065696139800,6.191139892578125,-0.8713064489454031,-0.8758335709810257,2.0053774068757892
1704790065706115800,6.20111572265625,-0.8732464770972728,-0.9157412184774875,2.197560313159227
1704790065716092000,6.211091796875,-0.8556932847499847,-0.928452231490612,2.412715514229238
1704790065726068000,6.22106787109375,-0.8459826225966215,-0.9684972416311501,2.537495740108192
1704790065736044000,6.2310439453125,-0.8321692012995481,-1.0675228485286234,2.7068495594680306
1704790065746019800,6.241019775390625,-0.8244979360193013,-1.1669950301498173,2.929222729092836
1704790065755996000,6.250995849609375,-0.8000573222458363,-1.2820529034376145,3.0887066040843725
1704790065765972000,6.260971923828125,-0.7894383130759001,-1.394028592801094,3.276977597621083
1704790065775946800,6.27094677734375,-0.7791483897298574,-1.5518781445890664,3.4506183005198836
1704790065785923000,6.280923095703125,-0.7696352959752082,-1.6831190909147262,3.5857884029880163
1704790065795899000,6.29089892578125,-0.7320049457609653,-1.7296546321183441,3.7556536790013313
1704790065805875000,6.300875,-0.722788789126277,-1.782384351786971,3.9404154953733084
1704790065815851000,6.31085107421875,-0.7446767958074808,-1.8821569776594638,4.065815022194386
1704790065825826800,6.320826904296875,-0.7634206592440604,-1.9947271257847545,4.237420419873297
1704790065835803000,6.330802978515625,-0.7780868979781865,-2.105174290406704,4.362525055401027
1704790065845779000,6.340779052734375,-0.8065221343457698,-2.1914742712438104,4.463015474154055
1704790065855754800,6.350754638671875,-0.8459510584145784,-2.2429303177148103,4.518650559875369
1704790065865731000,6.36073095703125,-0.8968371960431337,-2.2547873442471027,4.592169385072589
1704790065875705900,6.370705810546875,-0.9604431145131588,-2.243176401430368,4.656374438479542
1704790065885682000,6.380681884765625,-1.0490987185657024,-2.3491022892355917,4.599005368572473
1704790065895658000,6.390657958984375,-1.1775374669522047,-2.6390239774763584,4.49731375733614
1704790065905634000,6.400634033203125,-1.2726450236231088,-3.053210343289375,4.403921187889575
1704790065915609900,6.41060986328125,-1.333104460760951,-3.4394209069401023,4.317832219454646
1704790065925586000,6.4205859375,-1.3503157078027725,-3.7663825782865286,4.309471218344569
1704790065935562000,6.43056201171875,-1.3813935676336289,-3.956021353045106,4.3196418992251155
1704790065945537800,6.440537841796875,-1.4349240822911262,-4.006027785229683,4.275649028241634
1704790065955513900,6.450513916015625,-1.4857126047641038,-3.9176749635159966,4.222439416101575
1704790065965490000,6.460489990234375,-1.5176760152578352,-3.7670769902914762,4.285134649467468
1704790065975464700,6.470464599609375,-1.5020534987121819,-3.524274196100235,4.390450880941748
1704790065985441000,6.48044091796875,-1.461155671134591,-3.1794407679766414,4.479963394084573
1704790065995416800,6.490416748046875,-1.3775427374243736,-2.74610955671072,4.584963983738422
1704790066005393000,6.500392822265625,-1.2155974407553671,-2.232998121765256,4.661926811909676
1704790066015369000,6.510368896484375,-1.119529514619708,-1.8000503568589685,4.654680494043231
1704790066025344800,6.5203447265625,-1.0313304221630095,-1.3822446315050125,4.642032609394192
1704790066035321000,6.530321044921875,-0.9933593687523156,-1.1247224070876836,4.5819981196701525
1704790066045297000,6.540296875,-0.9751987850964069,-1.087468488970399,4.399560654592514
1704790066055272700,6.550272705078125,-0.9975877270370721,-1.1785761623501776,4.163368510712683
1704790066065249000,6.5602490234375,-1.0310312200207263,-1.411643744468689,3.912107392516732
1704790066075223800,6.570223876953125,-1.0592068556040526,-1.6930033560693263,3.595614508214593
1704790066085200000,6.580199951171875,-1.1375666910916566,-1.9297920045375823,3.198849232801795
1704790066095176000,6.590176025390625,-1.2629817077428103,-2.1767238613575697,2.7602020872101187
1704790066105152000,6.600152099609375,-1.3298866677582264,-2.377837969854474,2.3413982907295225
1704790066115127800,6.6101279296875,-1.381970636869222,-2.5119886661469937,1.9885800013318657
1704790066125103900,6.620103759765625,-1.401801564890146,-2.6115719069272276,1.6516072235807775
1704790066135080000,6.630079833984375,-1.3823364014416932,-2.6103198610395193,1.3205942310169339
1704790066145056000,6.640055908203125,-1.3797867169588804,-2.6754420292913914,0.9439487835690379
1704790066155031800,6.65003173828125,-1.3689227931171655,-2.7925457291930913,0.5575669550046325
1704790066165008000,6.6600078125,-1.3173112638235092,-2.885266682988405,0.23404490271806716
1704790066174983000,6.66998291015625,-1.236194092451781,-2.959772181135416,-0.1082809264987707
1704790066184959000,6.679958984375,-1.1254682570189236,-2.932207297861576,-0.4174269551694393
1704790066194934800,6.689934814453125,-1.0145515751890837,-2.876014870518446,-0.6956494377881288
1704790066204911000,6.6999111328125,-0.895897723235935,-2.8061130667746066,-0.9528757479988038
1704790066214887000,6.709886962890625,-0.7704279076576233,-2.565659466058016,-1.0941656485214828
1704790066224862700,6.71986279296875,-0.7041045469224453,-2.2892414025127885,-1.3011601933591066
1704790066234839000,6.729839111328125,-0.6573549245767295,-2.042432879811525,-1.5389436980836093
1704790066244814800,6.73981494140625,-0.6799748987942934,-1.9616998854517935,-1.7482231389880178
1704790066254791000,6.749791015625,-0.6550250203244388,-2.045586959928274,-2.168482541104406
1704790066264767000,6.75976708984375,-0.6339477455042303,-1.9088439090549945,-2.296559032049775
1704790066274742000,6.769741943359375,-0.6310644451528787,-1.8416817594081163,-2.6006737885549662
1704790066284718300,6.77971826171875,-0.5519328946404158,-1.808261135843396,-2.8900664844855664
1704790066294694100,6.789694091796875,-0.49892275059521196,-1.7616648043632506,-3.1023823704764246
1704790066304670200,6.799670166015625,-0.4405972567461431,-1.6598428447455167,-3.3592855862125752
1704790066314646300,6.809646240234375,-0.3850619781374931,-1.4712626391291617,-3.6120027484357355
1704790066324622000,6.8196220703125,-0.3414478773385286,-1.236136955437064,-3.8394296943187713
1704790066334598400,6.829598388671875,-0.2752585182465613,-0.9556149637043475,-3.9856291403234003
1704790066344574200,6.83957421875,-0.21408464922904968,-0.6247334885656833,-4.086411235499382
1704790066354550000,6.849550048828125,-0.18924582991823552,-0.28312662127315996,-4.231659079867601
1704790066364525000,6.859525146484375,-0.18027268825918435,-0.030495676028728484,-4.386129510611296
1704790066374501000,6.869501220703125,-0.1802143822006881,0.15946517029106616,-4.507724092191458
1704790066384477200,6.879477294921875,-0.14947145341262222,0.36611587012708185,-4.598183530795574
1704790066394453200,6.889453369140625,-0.12775704973265528,0.5579460174500942,-4.69839747069478
1704790066404429300,6.89942919921875,-0.058669192720204585,0.734579180163145,-4.796735972110927
1704790066414405000,6.909405029296875,-0.01351297704577446,0.9210796568959951,-4.908779758274555
1704790066424381200,6.919381103515625,-0.034708909809589385,1.0275222620517015,-5.012494984292983
1704790066434357200,6.929357177734375,-0.01919555272683501,1.1327414628922938,-5.0919806089401245
1704790066444333300,6.939333251953125,0.0041653029859066,1.2674749275088308,-5.17009552975595
1704790066454309000,6.94930908203125,-0.04615253323540091,1.2851982157260178,-5.3117865584254265
1704790066464284200,6.9592841796875,-0.06768938839137553,1.2938672598719596,-5.397891308951378
1704790066474260000,6.969260009765625,-0.08836334310770035,1.2499725885659456,-5.530906279212236
1704790066484236300,6.979236328125,-0.12177826758399606,1.1813906352490187,-5.674072641131281
1704790066494212000,6.989212158203125,-0.1477620191462338,1.0771803191900253,-5.751974795979261
1704790066504188400,6.9991884765625,-0.1912134036641568,0.9125462218284607,-5.836587846642733
1704790066514164200,7.009164306640625,-0.2085585792839527,0.7988602214157581,-5.88823503177166
1704790066524140000,7.01914013671875,-0.23707740228176116,0.779801885202527,-5.899905595821142
1704790066534116400,7.029116455078125,-0.26272322712652385,0.7332265965104102,-5.915289042913914
1704790066544092200,7.039092041015625,-0.31594284920394416,0.6714642600804567,-5.914355561456084
1704790066554068000,7.04906787109375,-0.36635961575508114,0.6593231559097766,-5.87541997386217
1704790066564043300,7.059043212890625,-0.3810048117011785,0.6693202337890863,-5.803052656787633
1704790066574019000,7.06901904296875,-0.3951302946221083,0.6250964766591787,-5.772872622579336
1704790066583995100,7.0789951171875,-0.35671851170659064,0.4703916526377201,-5.722916459277272
1704790066593971200,7.08897119140625,-0.30713688080534335,0.23065584480166434,-5.691390271157026
1704790066603947300,7.098947265625,-0.20451646428629755,0.05273264227807521,-5.605039436915517
1704790066613923300,7.10892333984375,-0.12029635846316813,-0.1355389357805252,-5.5533706244766705
1704790066623899100,7.118899169921875,-0.06214505213722586,-0.3643143736630678,-5.580742031005024
1704790066633875200,7.128875244140625,-0.03641849020645022,-0.7494570158213376,-5.593624308931827
1704790066643851300,7.138851318359375,-0.022967545546218753,-1.1614712982922792,-5.539188954389095
1704790066653827000,7.1488271484375,-0.023695202233642337,-1.4667840324103831,-5.472048432052135
1704790066663802000,7.158802001953125,-0.07076748066246509,-1.6914117029637097,-5.393328531080484
1704790066673778200,7.168778076171875,-0.07152845509760081,-1.7516800014436245,-5.175885219073296
1704790066683754200,7.178754150390625,-0.1254085138451308,-1.750199992018938,-4.963818339407443
1704790066693730000,7.18872998046875,-0.18931085797846317,-1.6832067691981791,-4.749557749089599
1704790066703706400,7.198706298828125,-0.25323877494446934,-1.4834662871420383,-4.5380669157460325
1704790066713682200,7.20868212890625,-0.2996855418860912,-1.2059212653934954,-4.282121439126134
1704790066723658000,7.218657958984375,-0.33920740493535995,-0.8870657436132431,-3.938032691890001
1704790066733634300,7.22863427734375,-0.329153043910861,-0.511319290831685,-3.59881856495291
1704790066743610000,7.238610107421875,-0.32372225103378294,-0.1409504394352436,-3.269472336557507
1704790066753585200,7.248585205078125,-0.3501028929591179,0.06161269882619381,-2.9976509531527755
1704790066763561200,7.258561279296875,-0.34275033823922274,0.0881470700085163,-2.80489433863461
1704790066773537300,7.268537353515625,-0.3878109845846891,-0.1104991870701313,-2.712902868157625
1704790066783513300,7.278513427734375,-0.42593890905752774,-0.4277583795696497,-2.643564543515444
1704790066793489200,7.2884892578125,-0.41137715361118316,-0.7823673517763614,-2.5135142682790756
1704790066803465200,7.29846533203125,-0.44825463963150974,-1.2231038708627224,-2.4201317818351087
1704790066813441300,7.308441162109375,-0.46946533157303927,-1.6106547432065008,-2.310884932913631
1704790066823417000,7.3184169921875,-0.49238063547536726,-1.9288561849921941,-2.1548906536035237
1704790066833393200,7.32839306640625,-0.48019583829343315,-2.07243171223402,-1.8799648744426667
1704790066843369200,7.338369140625,-0.4710772968143224,-2.06279002366364,-1.6354234198905526
1704790066853344300,7.34834423828125,-0.49097091480791566,-2.0251251866579056,-1.365232998688519
1704790066863320000,7.358320068359375,-0.519015252161771,-1.955816672632098,-1.0269660894736647
1704790066873296400,7.36829638671875,-0.5494437081731856,-1.7751228363513945,-0.708185678756237
1704790066883272200,7.378272216796875,-0.5275884347178041,-1.5147469760686159,-0.4349691877312958
1704790066893248000,7.388248046875,-0.5449719695866108,-1.2847533945679663,-0.14496128251180052
1704790066903224300,7.398224365234375,-0.52613692073524,-1.0839110887497663,0.20337956921085715
1704790066913200000,7.4082001953125,-0.5012982475548983,-0.9252338539659977,0.49603521246016025
1704790066923176200,7.41817626953125,-0.48588140964917836,-0.819996532946825,0.7545065542958677
1704790066933152300,7.42815234375,-0.4494149155825376,-0.6901911723822355,1.0422286866657435
1704790066943128000,7.438128173828125,-0.4305553168118,-0.6456032581150531,1.2639390084676443
1704790066953103400,7.448103271484375,-0.4363981976211071,-0.6872159559637308,1.419513747191429
1704790066963079200,7.4580791015625,-0.4879026863437146,-0.8058101866841316,1.559385451479256
1704790066973055200,7.46805517578125,-0.5128589214891195,-0.9576473463147878,1.7701693055972456
1704790066983031300,7.47803125,-0.5294727871596813,-1.0973252815961838,1.967045922654867
1704790066993007000,7.488007080078125,-0.5846294417142868,-1.2426187186717987,2.0899749677091837
1704790067002983200,7.497983154296875,-0.6168670660395175,-1.3537789999991654,2.2398878812789915
1704790067012959200,7.507959228515625,-0.647084436583519,-1.4609733003050087,2.4084993578389287
1704790067022935000,7.51793505859375,-0.7101864971846341,-1.6081863072663545,2.608320796176791
1704790067032911400,7.527911376953125,-0.7202940497010946,-1.7033879719614982,2.8413988996893167
1704790067042887200,7.53788720703125,-0.7145774256199597,-1.726512242439389,3.0798791545063255
1704790067052862200,7.5478623046875,-0.7791874796312301,-1.6506728653401135,3.2786943384110927
1704790067062838300,7.55783837890625,-0.8365425940781831,-1.5149486361205577,3.4468531027674674
1704790067072814300,7.567814453125,-0.8745242419481277,-1.3626017734020948,3.6616996762797234
1704790067082790100,7.5777900390625,-0.8901315609246492,-1.21990010638535,3.8802781297966837
1704790067092766200,7.58776611328125,-0.916214096686244,-1.0473866539508103,4.0330321120113135
1704790067102742300,7.5977421875,-0.9110983611077069,-0.9093810357958078,4.194271306237578
1704790067112718000,7.607718017578125,-0.945005891406536,-0.8014122439861298,4.35322151274383
1704790067122694100,7.617694091796875,-0.9649760817676782,-0.7505009719163179,4.491305456832051
1704790067132670200,7.627670166015625,-0.962005541524291,-0.7030319492548703,4.635935461562871
1704790067142646300,7.637646240234375,-0.9607494039833545,-0.704254184526205,4.7659138406068084
1704790067152621300,7.647621337890625,-0.9828215350598096,-0.7518664150506258,4.8451755933701985
1704790067162597000,7.65759716796875,-0.9997802686452865,-0.7977338477343321,4.888536596190929
1704790067172573200,7.6675732421875,-1.0381512080937623,-0.9365583810567856,4.931007372173666
1704790067182549200,7.67754931640625,-1.0886305184870957,-1.0969558637619017,5.0036482454925775
1704790067192525000,7.687525146484375,-1.1039017373770474,-1.1803209601908922,5.049660639604926
1704790067202501400,7.69750146484375,-1.1319248858124018,-1.3287632166862486,5.045403566682339
1704790067212477200,7.707477294921875,-1.1663117240607739,-1.5183978997915983,5.025435129886866
1704790067222453000,7.717452880859375,-1.1627613381028175,-1.6737877834677695,5.006697111669182
1704790067232429300,7.72742919921875,-1.1845189964026213,-1.8323299936950206,4.97620903442502
1704790067242405000,7.737405029296875,-1.215209902742505,-1.9903478877872227,4.951600078347325
1704790067252380200,7.747380126953125,-1.2880430837631225,-2.1078759505808353,4.911968325182795
1704790067262356200,7.757356201171875,-1.370122816556692,-2.167355144509673,4.842107437971234
1704790067272332300,7.767332275390625,-1.4513000475525855,-2.1302906114846465,4.7820735327690835
1704790067282308000,7.77730810546875,-1.535073140260577,-2.056960002335906,4.70775975780189
1704790067292284000,7.787283935546875,-1.6152233662962912,-1.9674083262264728,4.608264779826999
1704790067302260000,7.797260009765625,-1.7105337520629167,-2.027576671463251,4.451451000827551
1704790067312236000,7.807236083984375,-1.7936346445977687,-2.175487013038993,4.270761256200075
1704790067322212000,7.817212158203125,-1.8445143524855374,-2.4391122305065394,4.021840855911374
1704790067332188200,7.827188232421875,-1.8779542652726173,-2.8620108950853345,3.7222944302350283
1704790067342164000,7.8371640625,-1.8628619100809096,-3.3331396298259497,3.501575457558036
1704790067352139000,7.847138916015625,-1.823578531962633,-3.726397189378738,3.3280478596448897
1704790067362115000,7.857114990234375,-1.7591998755544422,-3.984569986659288,3.1953999691307544
1704790067372091100,7.867091064453125,-1.6969991477072237,-4.037704195475578,3.0443323325678704
1704790067382067000,7.87706689453125,-1.6672323704749346,-3.987300288406014,2.8269083097830414
1704790067392043000,7.88704296875,-1.6045120026677846,-3.874704421317577,2.6931737930759785
1704790067402019000,7.89701904296875,-1.4918559298247098,-3.6597540951699017,2.7139780961737037
1704790067411995000,7.906994873046875,-1.3782102614223957,-3.304413886079192,2.772337053900957
1704790067421971200,7.91697119140625,-1.2416525039881467,-2.771301865634322,2.8588416173994537
1704790067431947000,7.926947021484375,-1.0923217742204665,-2.179813644066453,2.9010756620168685
1704790067441923000,7.936923095703125,-0.9595236615806817,-1.7060720964789389,2.8096248742878434
1704790067451898000,7.946898193359375,-0.8617571878988295,-1.3982780669391155,2.6662761415392158
1704790067461874000,7.9568740234375,-0.824856832459569,-1.2863146525353193,2.476511110052466
1704790067471850000,7.96685009765625,-0.8223193498712033,-1.4116022434145212,2.2059785974144934
1704790067481826000,7.976825927734375,-0.841650657806918,-1.8053063776910303,1.8696017397299407
1704790067491801900,7.9868017578125,-0.8720416313521564,-2.310749469965696,1.4925485882639884
1704790067501778200,7.996778076171875,-0.9522580544918775,-2.8721903437942267,1.0467340352609753
1704790067511754000,8.00675390625,-1.0052515396632253,-3.3314000926822422,0.6217252466604113
1704790067521730000,8.01672998046875,-1.100973721101135,-3.6363147673934697,0.20119652608335017
1704790067531706000,8.0267060546875,-1.1912350067846476,-3.8218402616143226,-0.2000910490594804
1704790067541682000,8.036681884765626,-1.2305464419536292,-3.8419653502762316,-0.5332726178340613
1704790067551657000,8.046656982421876,-1.2632212155871092,-3.7513562740683555,-0.8741317354992032
1704790067561633000,8.056633056640624,-1.2559661298923193,-3.6127895148992537,-1.1946947918497026
1704790067571609000,8.066609130859375,-1.2001308454237878,-3.4687136369198557,-1.4188241574920712
1704790067581585000,8.0765849609375,-1.1624304987132548,-3.4061136806219814,-1.7291585191644727
1704790067591561000,8.08656103515625,-1.1176076066464184,-3.268719472363591,-1.9804411185398696
1704790067601537000,8.096537109375,-1.0411550660848616,-3.083822339174151,-2.2133879968881605
1704790067611513000,8.10651318359375,-0.9354900211729109,-2.8334435567706824,-2.444307314931601
1704790067621489200,8.1164892578125,-0.8468407007306814,-2.5741665976405144,-2.654910405655205
1704790067631465000,8.12646484375,-0.8044510271601378,-2.3420231446295974,-2.8812685532629487
1704790067641441000,8.13644091796875,-0.7757669305980205,-2.103043708118796,-3.049492199549079
1704790067651416000,8.146416015625,-0.7206687282323837,-1.813621201571822,-3.2529891115292906
1704790067661392000,8.156391845703125,-0.6503864007383584,-1.53603760137856,-3.436348367626965
1704790067671368200,8.1663681640625,-0.5982517243534327,-1.3073311370790004,-3.6344460509121417
1704790067681344000,8.176343994140625,-0.5542207133166491,-1.1773860757827759,-3.866244636008143
1704790067691320000,8.186320068359375,-0.5320328469060361,-1.076621516263485,-4.079956944793462
1704790067701296000,8.196296142578126,-0.49840778681039805,-0.8988637334346771,-4.317440005266666
1704790067711272000,8.20627197265625,-0.51327290911749,-0.7072124498099088,-4.532507820314168
1704790067721248300,8.216248291015624,-0.5170955361455679,-0.5177379257023335,-4.719933595198393
1704790067731224000,8.22622412109375,-0.5091571443617343,-0.31399756035506726,-4.843398646825552
1704790067741200000,8.236199951171875,-0.515828877210617,-0.07414017196595668,-4.9869613145858045
1704790067751175000,8.2461748046875,-0.4916660574652254,0.13860358404815196,-5.134091903960704
1704790067761151000,8.25615087890625,-0.4424140969097614,0.3780921391248703,-5.171937358230352
1704790067771127000,8.266126953125,-0.380686831793189,0.5966495498538017,-5.264287140625715
1704790067781103000,8.27610302734375,-0.3236990162886679,0.8020978881627321,-5.401549246937036
1704790067791079200,8.2860791015625,-0.28170499097220597,0.9665718265265226,-5.516619979706406
1704790067801055000,8.296054931640626,-0.2920103310830891,1.1092840149372816,-5.645910961008072
1704790067811031000,8.306031005859374,-0.2221878761857748,1.2522124764472244,-5.731284474650025
1704790067821007000,8.316007080078125,-0.2239735174935311,1.344784961682558,-5.8097086075454945
1704790067830983000,8.32598291015625,-0.20369944881498814,1.4180033426284788,-5.875927338862419
1704790067840959000,8.335958984375,-0.17614976311028002,1.5564783318609,-5.911358133205771
1704790067850934000,8.34593408203125,-0.17423194679021833,1.683358160367608,-5.971631107860803
1704790067860909800,8.355909912109375,-0.15433365262150764,1.7464765875816344,-6.024843642610311
1704790067870886100,8.36588623046875,-0.14446458503603934,1.823272827014327,-6.0884255956828595
1704790067880862000,8.375862060546876,-0.13706037319414316,1.8072154261827469,-6.218773977082967
1704790067890838300,8.38583837890625,-0.15263035583496093,1.657035386109352,-6.343169587558507
1704790067900814000,8.39581396484375,-0.17388181817829607,1.4106950654417276,-6.4219724906384945
1704790067910790000,8.405789794921875,-0.1839595600783825,1.1706424467414618,-6.510459167864918
1704790067920766200,8.41576611328125,-0.22616145599186419,0.9365320775717496,-6.63720280277133
1704790067930742000,8.425741943359375,-0.2825203259430826,0.7106874324440956,-6.734215900802612
1704790067940717800,8.4357177734375,-0.300913037854433,0.4226677784323692,-6.739952983149886
1704790067950693000,8.445693115234375,-0.3148020086057484,0.23939912322759627,-6.63251961339116
1704790067960669000,8.4556689453125,-0.33022681062221526,0.1660030476272106,-6.5135471970081324
1704790067970645000,8.46564501953125,-0.31462467927746474,0.21526246083676814,-6.3742369259953495
1704790067980621000,8.47562109375,-0.2586461138807237,0.3871592426776886,-6.203311619535088
1704790067990597000,8.48559716796875,-0.19978125245794653,0.4738754031002521,-6.078337916910648
1704790068000573000,8.495572998046875,-0.1641384227991104,0.43239130006730553,-5.9730035652577875
1704790068010549000,8.505549072265625,-0.1511900938987732,0.2375596328407526,-5.950559093737602
1704790068020525000,8.515525146484375,-0.19943316967263816,-0.21174422358274458,-6.032758068996667
1704790068030501000,8.525501220703125,-0.2069417917370796,-0.8416226738214493,-6.0929042024016375
1704790068040477000,8.535476806640625,-0.24550343145206568,-1.4599690916985273,-6.100166302359104
1704790068050452000,8.545451904296876,-0.24725626646876334,-1.889192867645621,-6.019245091950893
1704790068060428000,8.555427978515626,-0.28556984970681365,-2.084384600356221,-5.870409452223777
1704790068070404000,8.565404052734374,-0.3533791381508112,-2.30113759201169,-5.770860698235035
1704790068080380000,8.5753798828125,-0.413680754378438,-2.425060908800363,-5.580384888130426
1704790068090356200,8.585356201171875,-0.5055841081805527,-2.505033440181613,-5.388964490652084
1704790068100332000,8.59533203125,-0.6217313841402531,-2.4893822820633646,-5.101971257078647
1704790068110307800,8.605307861328125,-0.7218202363550662,-2.4012141692668196,-4.7692871164321895
1704790068120284200,8.6152841796875,-0.7849123600840568,-2.2142764701604842,-4.369541656164825
1704790068130260000,8.625260009765626,-0.8112370340384543,-1.9126275192469357,-3.895686419069767
1704790068140236000,8.635236083984376,-0.7975035461097956,-1.5850409940004349,-3.4466257237523794
1704790068150212000,8.645212158203124,-0.7409851016826927,-1.2057856563150882,-2.9841052428811787
1704790068160187000,8.655186767578124,-0.7114432192474603,-0.9408581240773201,-2.6367256374061108
1704790068170163000,8.665162841796874,-0.6547418194688857,-0.8691098156839608,-2.321715392877161
1704790068180139000,8.675138916015625,-0.6127263860382139,-0.9773884040951728,-2.0168828434914348
1704790068190115000,8.685114990234375,-0.5686727247782051,-1.2385048536121845,-1.7868112283185122
1704790068200091100,8.695091064453125,-0.5742788742221892,-1.5927853245168924,-1.6277530313931405
1704790068210067000,8.70506689453125,-0.5541460406452418,-2.017270966026187,-1.4288541147276759
1704790068220043000,8.71504296875,-0.5300742601841688,-2.4203350493222473,-1.2368752065837383
1704790068230019000,8.72501904296875,-0.574898467425257,-2.7773715409368274,-1.101577093821764
1704790068239995000,8.734994873046874,-0.6273517082400619,-3.0244121188282964,-0.9047868398733436
1704790068249971000,8.744970947265625,-0.6512146682560443,-3.15948811327219,-0.6942754460211843
1704790068259946000,8.754946044921875,-0.6682032124578953,-3.1931600812494754,-0.43987829482182855
1704790068269922000,8.764922119140625,-0.7239303603768348,-3.2086043186187743,-0.2080307560175657
1704790068279897900,8.77489794921875,-0.7874119218148291,-3.2207939381062984,0.06656462214514612
1704790068289873400,8.784873291015625,-0.7994291073448956,-3.1753958765000103,0.380524626968801
1704790068299849500,8.794849365234375,-0.7650713490605354,-3.0019629711329934,0.7175885901346802
1704790068309825500,8.804825439453126,-0.7587245373170822,-2.7793875569343567,1.087047048687935
1704790068319801300,8.81480126953125,-0.7706721647422761,-2.5620342612981797,1.4191715096250175
1704790068329777400,8.82477734375,-0.8286796056181192,-2.3228671932607887,1.7262693735942243
1704790068339753500,8.83475341796875,-0.8422077802330254,-2.1444787113130093,2.0524840259656307
1704790068349729300,8.844729248046875,-0.8899468520075082,-1.9661632946014402,2.398473930647969
1704790068359704600,8.85470458984375,-0.8879887767422944,-1.7975532793462274,2.6556562555864454
1704790068369680400,8.864680419921875,-0.9183487706273794,-1.603231899729371,2.8616847318708896
1704790068379656200,8.87465625,-0.9637971741814165,-1.4692887087076902,3.0319179644137617
1704790068389632500,8.884632568359375,-0.9717250445712358,-1.4443050740987062,3.2587723711058496
1704790068399608300,8.8946083984375,-0.9835352362871169,-1.5211077432721853,3.4772654844269155
1704790068409584600,8.904584716796874,-0.9634054714500904,-1.5977216118752955,3.6852883493989705
1704790068419560400,8.914560546875,-0.9952239205151796,-1.6864935357838868,3.829254337263107
1704790068429536300,8.924536376953125,-0.9777297648787497,-1.799163637152314,3.9354277700886127
1704790068439512600,8.9345126953125,-1.0192226357400416,-1.8732476950168608,4.095446774870157
1704790068449488400,8.94448828125,-1.0061895511657,-1.9777946956843138,4.275091394358873
1704790068459463400,8.95446337890625,-1.0206383477568626,-2.055010621833801,4.45175086055696
1704790068469439500,8.964439453125,-1.079256540942192,-2.0983698710888623,4.596477311399579
1704790068479415300,8.974415283203125,-1.1221113478064537,-2.1052917793065307,4.770196632492542
1704790068489391400,8.984391357421876,-1.1277940696179867,-2.026138163092732,4.954683431315422
1704790068499367400,8.994367431640624,-1.1219365757614375,-1.8493612079948185,5.096638079357147
1704790068509343500,9.004343505859374,-1.1307517503798008,-1.686056897932291,5.258033340927958
1704790068519319300,9.0143193359375,-1.1629016233563423,-1.582302508947253,5.376549830237031
1704790068529295400,9.02429541015625,-1.1585235544025898,-1.3950088360100983,5.513156687510013
1704790068539271400,9.034271484375,-1.1744716496407985,-1.268983578506112,5.665881735891103
1704790068549247500,9.04424755859375,-1.1762357367038727,-1.2137491825401783,5.744568903636932
1704790068559222500,9.054222412109375,-1.187937864935398,-1.1643436388581991,5.831313121110201
1704790068569198300,9.0641982421875,-1.1534732852756977,-1.1305863306850195,5.94942512127161
1704790068579174400,9.07417431640625,-1.151795707452297,-1.1295920589506625,5.958440202376246
1704790068589150500,9.084150390625,-1.1908674886465072,-1.1474977179974317,5.979916121125221
1704790068599126300,9.094126220703124,-1.2215607330739497,-1.2178332369834184,6.001736907789111
1704790068609102600,9.1041025390625,-1.2735633075118065,-1.3007657872140406,5.933305176597833
1704790068619078400,9.114078369140625,-1.2997569024324416,-1.4238731114447116,5.856501922902464
1704790068629054200,9.12405419921875,-1.3379530698359012,-1.5946628088265657,5.762155998253822
1704790068639030500,9.134030517578125,-1.3945184221446514,-1.8240683613061903,5.619752437400818
1704790068649006300,9.14400634765625,-1.4785200629115103,-2.0659376740396023,5.482983667564392
1704790068658982400,9.153982421875,-1.5252490808606147,-2.255560666707158,5.340132362943887
1704790068668957400,9.16395751953125,-1.5690157418727875,-2.387791793113947,5.19228924138546
1704790068678933500,9.17393359375,-1.623437067890167,-2.419332594281435,5.045669524142146
1704790068688909300,9.183909423828124,-1.688096879327297,-2.471595280960202,4.929385323929786
1704790068698885400,9.193885498046875,-1.7779776412606239,-2.516928460636735,4.753029809114337
1704790068708861400,9.203861328125,-1.8774860632389783,-2.607460964477062,4.519084859639406
1704790068718837500,9.21383740234375,-1.9702713144421575,-2.8019296436101198,4.223917087438703
1704790068728813300,9.223813232421875,-2.048677327159047,-3.169394590258598,3.8719150828599926
1704790068738789400,9.233789306640626,-2.103312588188052,-3.7256811500638722,3.5131577588021754
1704790068748765400,9.243765380859376,-2.0653362010151146,-4.2130753754287955,3.2599756094157692
1704790068758741500,9.253741455078124,-2.013749221640825,-4.517183994454145,3.0692677441209555
1704790068768716300,9.26371630859375,-2.0016256531268355,-4.696880636391043,2.7525089023590086
1704790068778692600,9.273692626953125,-2.0004881735295057,-4.655280213502049,2.4900690952837468
1704790068788668400,9.28366845703125,-1.9841303284466265,-4.480821472218633,2.3694757997006177
1704790068798644200,9.293644287109375,-1.9353174899607897,-4.180474251553416,2.3148986985996363
1704790068808620500,9.30362060546875,-1.851126464101672,-3.7380847045630214,2.322506250993907
1704790068818596400,9.313596435546875,-1.7601339415341615,-3.2695769659757614,2.2729154138728975
1704790068828572400,9.323572509765626,-1.674840507391095,-2.7710253867805004,2.1949495461389423
1704790068838548500,9.333548583984374,-1.6058102257847786,-2.31713946326375,2.0897025805085896
1704790068848524300,9.343524169921874,-1.5451241402842104,-1.9937761086702346,1.9369214180260896
1704790068858500600,9.35350048828125,-1.4766555842138827,-1.830307547956705,1.7400693508878349
1704790068868475400,9.363475341796875,-1.4707337929494677,-1.9695839166998863,1.3767805208802222
1704790068878451500,9.373451416015625,-1.409316178303957,-2.3488977065742014,1.0325067724660038
1704790068888427500,9.383427490234375,-1.3504377267472445,-2.6998510788828134,0.6808578191086649
1704790068898403300,9.3934033203125,-1.3366406720630823,-2.9930355683118104,0.16927461664378643
1704790068908379400,9.40337939453125,-1.312681704326719,-3.2412942898213863,-0.2939575196281075
1704790068918355500,9.41335546875,-1.2825349878661334,-3.391492450073361,-0.6790443399459123
1704790068928331300,9.423331298828124,-1.2668838297478855,-3.441373794573545,-1.013895595498383
1704790068938307600,9.4333076171875,-1.2168149998515843,-3.370404653859138,-1.2937675988897681
1704790068948283400,9.443283447265625,-1.1560656398564577,-3.287793006145954,-1.5458796348266302
1704790068958259500,9.453259521484375,-1.1261730442874134,-3.206581288358569,-1.8024466043457388
1704790068968235500,9.463235595703125,-1.107878824314475,-3.1139082653582095,-2.115489640454948
1704790068978210600,9.47321044921875,-1.1227404394902287,-3.0341712962985037,-2.442803193978965
1704790068988186400,9.483186279296875,-1.0813796705760061,-3.1204145785123107,-2.7852406668767333
1704790068998162400,9.493162353515626,-1.0015065079160035,-3.235253840613365,-3.042380613978207
1704790069008138500,9.503138427734376,-0.9442882446564733,-3.1791362320721146,-3.2738843077808615
1704790069018114300,9.5131142578125,-0.8984721037685871,-2.964699116143584,-3.532436459767818
1704790069028090400,9.52309033203125,-0.8438093702107667,-2.643947405353188,-3.6552930241078134
1704790069038066400,9.53306640625,-0.8333791616111993,-2.265229243284464,-3.747657127289474
1704790069048042200,9.543042236328125,-0.8615443488657474,-1.945725486728549,-3.918393925440311
1704790069058018600,9.5530185546875,-0.8471681791193783,-1.6516273895859717,-4.0286949595898385
1704790069067994400,9.562994384765625,-0.8729420873232185,-1.446716811415553,-4.222200054387748
1704790069077969400,9.572969482421875,-0.8684183262884616,-1.2114473353385924,-4.360136406698823
1704790069087945500,9.582945556640626,-0.8747814315795898,-0.9970651644676923,-4.518285233694315
1704790069097921300,9.59292138671875,-0.8673556654930115,-0.8529998078823089,-4.722003971731662
1704790069107897600,9.602897705078124,-0.8401771511882543,-0.706796270224452,-4.924897364860773
1704790069117873400,9.612873291015624,-0.8374924421489238,-0.5602864430963993,-5.082322553756833
1704790069127849200,9.62284912109375,-0.801255007597804,-0.42625674283504483,-5.233125109642744
1704790069137825500,9.632825439453125,-0.7646867336571216,-0.32704934962987897,-5.366883591747284
1704790069147801300,9.64280126953125,-0.7306685825906694,-0.1778244183242321,-5.467351214146614
1704790069157777400,9.65277734375,-0.6777114839069545,-0.03457797690629959,-5.585042358547449
1704790069167753500,9.66275341796875,-0.6279169409073889,0.1412859549999237,-5.654720874929428
1704790069177729300,9.672729248046876,-0.5856663835465907,0.32248072654008864,-5.744802712392807
1704790069187704300,9.682704345703126,-0.5577344205260276,0.5452005176454782,-5.831260514140129
1704790069197680400,9.692680419921874,-0.5386532879590988,0.7367132695823907,-5.953683947759866
1704790069207656400,9.702656494140625,-0.5187954719312489,0.8883516917705535,-6.030155777543783
1704790069217632300,9.71263232421875,-0.4797818506650626,1.0320879625320434,-6.090936701720953
1704790069227608300,9.7226083984375,-0.4525437151275575,1.1740852806717157,-6.1405672863304614
1704790069237584400,9.73258447265625,-0.36688217832446096,1.3238181614995002,-6.1405304614514105
1704790069247560400,9.742560546875,-0.2808464013814926,1.5160498753607272,-6.192497380053997
1704790069257536500,9.75253662109375,-0.23999285133704543,1.6089134524971245,-6.22798253493309
1704790069267512300,9.76251220703125,-0.15593158933743834,1.7575737356573342,-6.217086462387442
1704790069277488400,9.77248828125,-0.12016893269121647,1.7926801203519105,-6.310843188971281
1704790069287463400,9.78246337890625,-0.1368856742143631,1.7405851914554833,-6.410335244336724
1704790069297439200,9.792439208984375,-0.13374620714485644,1.6623305699080229,-6.485357459834217
1704790069307415600,9.80241552734375,-0.13958835730180144,1.49577222648561,-6.5605059320598835
1704790069317391400,9.812391357421875,-0.12447101379930972,1.4100719651073217,-6.611661534279585
1704790069327367400,9.822367431640625,-0.104777886813879,1.4206132328659296,-6.656529434531927
1704790069337343500,9.832343505859376,-0.07456336581408977,1.338652742537856,-6.722315619650483
1704790069347319300,9.8423193359375,-0.07441475112363696,1.1864864970833062,-6.741690766727924
1704790069357295600,9.852295654296874,-0.0627063392817974,0.9667167879551648,-6.6963792143613095
1704790069367271400,9.862271484375,-0.012356719682738184,0.8543161511778831,-6.593304039812088
1704790069377247200,9.872247314453125,-0.03594283551871776,0.7677969746321439,-6.594774112364649
1704790069387223600,9.8822236328125,-0.07124328148066997,0.6986077030718326,-6.597734715735912
1704790069397198300,9.8921982421875,-0.10442768513672053,0.516248563927412,-6.477283458971977
1704790069407174400,9.90217431640625,-0.14799553564116358,0.27555940088927744,-6.371851492163539
1704790069417150500,9.912150390625,-0.17826156763248144,0.1897673695743084,-6.184177295476198
1704790069427126500,9.92212646484375,-0.2581478089697659,0.08320435290932655,-6.093949327540397
1704790069437102300,9.932102294921876,-0.3064050593994558,-0.1661392412275076,-5.9845052024811505
1704790069447078400,9.942078369140624,-0.36412381952703,-0.4692103338986635,-5.8366071358650915
1704790069457054500,9.952054443359375,-0.468723573295027,-0.9626286418586969,-5.823719012719392
1704790069467030300,9.9620302734375,-0.5264934790879487,-1.562149363234639,-5.818599770009517
1704790069477006300,9.97200634765625,-0.4653232633322477,-2.000114664041996,-5.636022019678354
1704790069486982400,9.981982421875,-0.4045206387799233,-2.253192184010148,-5.466190353673696
1704790069496958500,9.99195849609375,-0.47839200374186036,-2.5476661287277937,-5.361909310466051
1704790069506933500,10.00193359375,-0.4675340712495148,-2.7775965818643567,-5.139644861912727
1704790069516909300,10.011909423828126,-0.5145699631907046,-2.9167607224047183,-5.046577286636829
1704790069526885600,10.0218857421875,-0.5732592488508671,-2.9938106443375347,-4.958519063955545
1704790069536861400,10.031861328125,-0.5644078338753432,-2.9685628058344125,-4.626076915371418
1704790069546837200,10.041837158203125,-0.5620966343235224,-2.728175256091356,-4.204502192872763
1704790069556813600,10.0518134765625,-0.5315002743992954,-2.3052730843812226,-3.6869594974815842
1704790069566789400,10.061789306640625,-0.5025432061146945,-1.896649613392353,-3.1739351562976834
1704790069576765200,10.07176513671875,-0.4569359587371349,-1.5387714102566241,-2.6848332502320407
1704790069586741500,10.081741455078125,-0.4841507133990526,-1.3284218559026717,-2.2422727305889127
1704790069596717300,10.09171728515625,-0.4747176260780543,-1.2672656686723232,-1.902785631929338
1704790069606692400,10.1016923828125,-0.46460598190836605,-1.3822463850706814,-1.6076213668599724
1704790069616668400,10.11166845703125,-0.4604167865902185,-1.5786077460825443,-1.381219964632392
1704790069626644500,10.12164453125,-0.5440022477716208,-1.8725912769347428,-1.200027677310258
1704790069636620500,10.13162060546875,-0.5844816307414322,-2.3090058411687613,-0.8933201278328895
1704790069646596400,10.141596435546875,-0.6724814012337476,-2.83260827499032,-0.6574838116534054
1704790069656572400,10.151572509765625,-0.8938830224126577,-3.412136594173312,-0.5140316185303032
1704790069666548500,10.161548583984375,-1.0359217685412614,-3.883955649265647,-0.3128159493550658
1704790069676524300,10.171524169921875,-1.114217964208126,-4.230008974573016,0.002057224790751934
1704790069686500400,10.181500244140626,-1.1966747136205433,-4.521905762279033,0.30745354553908105
1704790069696476400,10.191476318359374,-1.2896702465735375,-4.5591222709953785,0.613478811840713
1704790069706452500,10.201452392578124,-1.3319652275979519,-4.410761847564578,0.9349892320439219
1704790069716427300,10.21142724609375,-1.4090525589317082,-4.111403637936711,1.2784674461662768
1704790069726403600,10.221403564453125,-1.4793027377218007,-3.696132399496436,1.7143129783406852
1704790069736379400,10.23137939453125,-1.5010364306241273,-3.33142288903594,2.1282655353978277
1704790069746355200,10.241355224609375,-1.5126041188210249,-2.885056255108118,2.5507453900426627
1704790069756331500,10.25133154296875,-1.4670067352503537,-2.4725457135528326,2.9769670615643262
1704790069766307300,10.261307373046876,-1.4590841255575417,-2.118178148886561,3.3181296922206878
1704790069776283400,10.271283447265626,-1.4497306062787771,-1.8672452397316692,3.592812894797325
1704790069786259500,10.281259521484374,-1.4060516235500573,-1.6726964810997247,3.8344869772195813
1704790069796235300,10.2912353515625,-1.4163000458419321,-1.5254232683837412,4.022577061231434
1704790069806211600,10.301211669921875,-1.4222411263287067,-1.5396972929298878,4.107865819199383
1704790069816186400,10.311186279296875,-1.4795114120364188,-1.6650860060960053,4.198474603146314
1704790069826162400,10.321162353515625,-1.4925626167893409,-1.8146113816529512,4.331003251194954
1704790069836138500,10.331138427734375,-1.4984031595110892,-1.9812650021433829,4.422576203998923
1704790069846114300,10.3411142578125,-1.5072715256214142,-2.0441408527731895,4.498484554681181
1704790069856090400,10.35109033203125,-1.5383751044154166,-2.1263363209009167,4.569325100579857
1704790069866066400,10.36106640625,-1.5421850180923937,-2.1409493681430813,4.644026413559914
1704790069876042200,10.371042236328124,-1.5484651212751865,-2.1038000794440506,4.759129295033216
1704790069886018600,10.3810185546875,-1.5320026467740535,-1.95338856870234,4.906162853774428
1704790069895994400,10.390994384765625,-1.529692616266012,-1.7739081998646258,5.033770412033796
1704790069905970400,10.400970458984375,-1.5703531279563903,-1.636236928230524,5.165881711453199
1704790069915946500,10.410946533203125,-1.5639759941399096,-1.4204226787298917,5.348857521191239
1704790069925921500,10.420921630859375,-1.5594459494948387,-1.2038812839984894,5.432525399959087
1704790069935897300,10.4308974609375,-1.5811527543902397,-1.085146183502674,5.513746470096707
1704790069945873400,10.440873291015626,-1.5665759475052357,-0.974519570660591,5.618195855608582
1704790069955849500,10.450849365234374,-1.5170587601423262,-0.8857178361356258,5.659051013088226
1704790069965825300,10.4608251953125,-1.4929004704415798,-0.8210270450383425,5.649072639909386
1704790069975801300,10.47080126953125,-1.454255390226841,-0.7863526220202446,5.604990921598673
1704790069985777400,10.48077734375,-1.4330886835575103,-0.814599057817459,5.596157042279839
1704790069995753200,10.490753173828125,-1.3897417092621325,-0.8658721489369868,5.597134947401285
1704790070005729500,10.5007294921875,-1.401619194060564,-1.0002262588471174,5.489474783149361
1704790070015705300,10.510705322265625,-1.3589222081065178,-1.1819576214820147,5.389281301516294
1704790070025681400,10.520681396484376,-1.3192203123152255,-1.3265250823706387,5.359884526640177
1704790070035656400,10.530656494140626,-1.3046283078610896,-1.4377210195332766,5.239987396627664
1704790070045632300,10.54063232421875,-1.2892904534757137,-1.4969704963594674,5.1023348296940325
1704790070055608600,10.550608642578124,-1.2393605936586856,-1.5392039564549922,5.06929122274816
1704790070065584400,10.56058447265625,-1.21124684433043,-1.5733347741156816,4.932364047479629
1704790070075560400,10.570560546875,-1.235391105505824,-1.64935535300076,4.766453938832878
1704790070085536500,10.58053662109375,-1.2302180867820978,-1.7459236298739909,4.612143082565069
1704790070095512300,10.59051220703125,-1.2622574851214885,-1.874793755415082,4.336389035886526
1704790070105488400,10.60048828125,-1.333794781112671,-1.9951766231179235,4.083686194449663
1704790070115464400,10.61046435546875,-1.393912857466936,-2.1279022550433875,3.850370190528035
1704790070125440300,10.620440185546874,-1.42514444655478,-2.302595974126458,3.5584640504717826
1704790070135415300,10.630415283203124,-1.443134276753664,-2.4602362670779225,3.2357115212529894
1704790070145391400,10.640391357421874,-1.451763573411107,-2.5973411370009183,2.8224989689081905
1704790070155367400,10.650367431640625,-1.4771289008140562,-2.7929671694755553,2.388610708281398
1704790070165343500,10.660343505859375,-1.4561416423648594,-2.942742135879397,2.0898370205432175
1704790070175319600,10.670319580078125,-1.3608569755613804,-3.0200983472824094,1.8045652039349078
1704790070185295400,10.68029541015625,-1.2785504482746124,-2.963599045947194,1.5427382680609822
1704790070195271400,10.690271484375,-1.2431975414730607,-2.9103713136285543,1.1750260686531662
1704790070205247500,10.70024755859375,-1.227045301964879,-2.8531635717630386,0.7784966478228569
1704790070215223300,10.710223388671874,-1.1915842586137353,-2.767905208933353,0.473593955810368
1704790070225199400,10.720199462890625,-1.184817687088251,-2.659406840291619,0.2547293788284063
1704790070235175400,10.730175537109375,-1.1783289095908402,-2.6573867326408624,0.028940263280272483
1704790070245150200,10.740150146484375,-1.1664395882241427,-2.730729032227397,-0.22180969052314756
1704790070255126500,10.75012646484375,-1.1045400352805852,-2.7960657200127836,-0.48727673646509645
1704790070265102300,10.760102294921875,-1.107511160045862,-2.8160101914107796,-0.7922066087454557
1704790070275078400,10.770078369140625,-1.0910321728013455,-2.709590967130661,-1.0777411679431796
1704790070285054500,10.780054443359376,-1.1080207170031964,-2.565568865165114,-1.3315487557515502
1704790070295030500,10.790030517578124,-1.0797902094274758,-2.345942363899946,-1.522481077452004
1704790070305006800,10.8000068359375,-1.083881862655282,-2.1569325346946715,-1.6416054695263504
1704790070314982700,10.809982666015625,-1.0511730406217277,-2.0111837550669907,-1.7772282841980456
1704790070324958500,10.81995849609375,-0.9438554061971605,-1.8003227440595626,-1.8603598641321062
1704790070334934800,10.829934814453125,-0.9089525812506675,-1.602851375979185,-1.9962280318669974
1704790070344910600,10.83991064453125,-0.861727888739109,-1.504725932791829,-2.165497533944249
1704790070354885600,10.8498857421875,-0.7521013928502798,-1.3869441874980926,-2.248441336221248
1704790070364861700,10.85986181640625,-0.71079571512416,-1.2078630471110343,-2.387867342568189
1704790070374837800,10.869837646484376,-0.6787937261857092,-1.050505662754178,-2.5950410433650015
1704790070384813600,10.8798134765625,-0.5988930909968913,-0.8850053039520979,-2.735732539603114
1704790070394789600,10.88978955078125,-0.5692202756583691,-0.7631050174236297,-2.916582150967419
1704790070404765700,10.899765625,-0.5510843149870633,-0.842417623591423,-3.135319302177429
1704790070414741800,10.90974169921875,-0.5215706357330083,-1.0060545266091823,-3.290366948287189
1704790070424717600,10.919717529296875,-0.3309183000177145,-1.2754799547880886,-3.5022470732092854
1704790070434693600,10.929693603515625,-0.21259821006357668,-1.5326456208527088,-3.7467081560015676
1704790070444669700,10.939669677734376,-0.3473211532860994,-1.6689707385748624,-3.9224110521271824
1704790070454644700,10.949644775390626,-0.4280674455188215,-1.5816010826796292,-4.258725073708594
1704790070464620500,10.95962060546875,-0.4652044592581689,-1.377898126733303,-4.525019510385394
1704790070474596900,10.969596923828124,-0.4460286341451108,-1.3046996195316314,-4.695183477084338
1704790070484572700,10.97957275390625,-0.43636254178583617,-1.2152087336987256,-4.7465755184084175
1704790070494548500,10.989548583984375,-0.3396013726890087,-0.9325088134050369,-4.653869469921291
1704790070504524800,10.99952490234375,-0.39482816987037656,-1.0178601152151823,-4.828585400836169
1704790070514500600,11.00950048828125,-0.34779052436351776,-0.9292442586511372,-4.945421097451448
1704790070524476700,11.0194765625,-0.2964725711889565,-0.6843330940037965,-4.804530571509898
1704790070534452700,11.02945263671875,-0.2982879500478506,-0.49367608211338515,-4.926439918127656
1704790070544428500,11.039428466796876,-0.23536592218875885,-0.20691315016448497,-4.930039988446236
1704790070554404600,11.049404541015624,-0.2360394375361502,0.0802525173664093,-4.879144498467445
1704790070564379600,11.059379638671874,-0.23654738705828784,0.33649639241099355,-4.863720719364285
1704790070574355700,11.069355712890625,-0.2747907546043396,0.541547255834937,-4.904254389804602
1704790070584331800,11.079331787109375,-0.2689946355462074,0.7188315759330988,-4.950575411474705
1704790070594307600,11.0893076171875,-0.26414558807983995,0.8898071512758732,-4.990164494541287
1704790070604283600,11.09928369140625,-0.2716923501975834,0.9691396311879158,-5.09478514496684
1704790070614259700,11.109259765625,-0.2651147253729403,0.9801882639467716,-5.138654097309709
1704790070624235500,11.119235595703126,-0.3152865772522986,0.984103976085782,-5.229374817198515
1704790070634211600,11.129211669921874,-0.28462518926784397,1.020038628298044,-5.281691864413022
1704790070644187600,11.139187744140624,-0.3098457013726234,1.0686778637826442,-5.299684617221355
1704790070654163700,11.149163818359375,-0.2854756686173379,1.1304507216066122,-5.331456304535269
1704790070664139800,11.159139892578125,-0.26880466593205926,1.1758756712198257,-5.281488450795412
1704790070674114800,11.16911474609375,-0.23795067798495292,1.2507394812852144,-5.276805261415243
1704790070684090600,11.179090576171875,-0.2601705469690263,1.298514208894968,-5.3346191524803634
1704790070694066700,11.189066650390625,-0.3031055063974112,1.291755382284522,-5.3368157857418055
1704790070704042800,11.199042724609376,-0.3387742742151022,1.1878151153385639,-5.2919338569641114
1704790070714018600,11.2090185546875,-0.41397359984517096,1.0497890389174223,-5.26239387422502
1704790070723994600,11.21899462890625,-0.4334112907648086,0.9783844293951988,-5.1886196129620075
1704790070733970700,11.228970703125,-0.5180459687381983,0.8728998556166887,-5.149883931854367
1704790070743946500,11.238946533203125,-0.5517367875464261,0.7812392245292663,-5.095572495952248
1704790070753922800,11.2489228515625,-0.5423439591705799,0.6781161191850901,-4.977337161672115
1704790070763898600,11.258898681640625,-0.5479976010181009,0.5594494077503681,-4.92240262543559
1704790070773874700,11.268874755859375,-0.5627852011095732,0.493622306099534,-4.857542615251242
1704790070783850800,11.278850830078126,-0.5344249296743423,0.43775896458029745,-4.755668340924382
1704790070793825500,11.288825439453126,-0.5338022677313536,0.39001463210880755,-4.621486957232654
1704790070803801900,11.2988017578125,-0.5476964261144399,0.3930827875077724,-4.439118757998943
1704790070813777700,11.308777587890624,-0.5397738894868642,0.34869185711741446,-4.231015813528001
1704790070823753500,11.31875341796875,-0.5605004511732607,0.3140028210520744,-4.102027322304249
1704790070833729800,11.328729736328125,-0.5575256731461733,0.328938524377346,-3.9688159526884554
1704790070843705600,11.33870556640625,-0.5807623910225927,0.3246645003199577,-3.82969623581171
1704790070853681700,11.348681640625,-0.5962614273190499,0.25576982779204843,-3.692510701867938
1704790070863657700,11.35865771484375,-0.6008294658869504,0.1815449001520872,-3.5257895690992473
1704790070873633500,11.368633544921876,-0.6460959370028228,0.01692015514075756,-3.402152960297465
1704790070883609900,11.37860986328125,-0.6641793637692928,-0.17603227421045303,-3.1780472677916287
1704790070893585700,11.388585693359374,-0.689958094278723,-0.3669628423452377,-2.9661548679098484
1704790070903560700,11.398560791015624,-0.7417933493256569,-0.4630611636191606,-2.799987569631636
1704790070913536500,11.40853662109375,-0.8130506593316793,-0.5520972914218902,-2.589398653563857
1704790070923512600,11.4185126953125,-0.8279847552217543,-0.6241437059789896,-2.3533872730784116
1704790070933488600,11.428488525390625,-0.8803617159299552,-0.6490922692745924,-2.130777956610173
1704790070943464700,11.438464599609375,-0.9448392296027391,-0.6966764427483081,-1.9248029640786348
1704790070953440800,11.448440673828125,-0.9864430865578353,-0.7223100656986237,-1.7186270421475172
1704790070963416600,11.45841650390625,-1.0117037845425307,-0.7437175953865051,-1.520333397898823
1704790070973392600,11.468392578125,-1.044404934726283,-0.842790548557043,-1.3301627082206309
1704790070983368700,11.47836865234375,-1.0592664768368005,-0.9402163190424442,-1.1295004351444542
1704790070993344500,11.488344482421875,-1.0749965454101562,-1.034354738420248,-0.9596114859946071
1704790071003319800,11.49831982421875,-1.0762519522987306,-1.0949907011687754,-0.8082520999435335
1704790071013295600,11.508295654296875,-1.0821792965210975,-1.1119026730030774,-0.6849545869030058
1704790071023271700,11.518271728515625,-1.1077946531623601,-1.1948702945470808,-0.5354108719717711
1704790071033247700,11.528247802734375,-1.0784740122623742,-1.185817219519615,-0.35051205828189846
1704790071043223600,11.5382236328125,-1.0820675067096948,-1.229904198527336,-0.2531235510669648
1704790071053200000,11.548199951171876,-1.110254175143689,-1.3144973754465579,-0.1394686033796519
1704790071063175700,11.55817578125,-1.1229472141087053,-1.3830653002381323,-0.016059008266776798
1704790071073151500,11.5681513671875,-1.1489542734812945,-1.4659125102728605,0.03239829477965832
1704790071083127800,11.5781279296875,-1.1880254701536148,-1.5892793622225523,0.09725216748416424
1704790071093103600,11.588103515625,-1.1623511498667298,-1.6429887405782937,0.2348452593155205
1704790071103079700,11.59807958984375,-1.1946223842006176,-1.719074785915017,0.33594343470335003
1704790071113054700,11.6080546875,-1.1860486171226947,-1.6799989130675792,0.4802162965595722
1704790071123030800,11.61803076171875,-1.1895406239569186,-1.6140630903452633,0.6089769703768193
1704790071133006600,11.628006591796876,-1.2140811909735203,-1.5887024391174316,0.7398277483411133
1704790071142982700,11.637982666015626,-1.2087847650658339,-1.5427338841468095,0.8868409949466586
1704790071152958700,11.647958740234374,-1.2343868968993426,-1.4796131188452244,1.0587421607017518
1704790071162934500,11.6579345703125,-1.2322405325204133,-1.4168126715391873,1.2138003282055259
1704790071172910600,11.66791064453125,-1.2448814029067754,-1.3529840502291917,1.3778101561889051
1704790071182886700,11.67788671875,-1.2314642874509096,-1.3010475267648696,1.5148223793923854
1704790071192862700,11.68786279296875,-1.245779228529334,-1.1820710187286139,1.6971233586087822
1704790071202838800,11.6978388671875,-1.254594987669587,-1.1175421401947736,1.794324088166654
1704790071212814600,11.707814697265626,-1.2489596121311186,-1.0832955871999264,1.902209001085162
1704790071222790000,11.717789794921876,-1.2504893059164286,-1.0765496200710534,2.019106949281692
1704790071232765700,11.727765625,-1.2585124533742666,-1.0932733758568762,2.113840704204142
1704790071242741500,11.737741455078124,-1.230090661010146,-1.1443997519820928,2.2561963342621922
1704790071252717800,11.7477177734375,-1.2076221510272473,-1.1861463053435086,2.3906515664592383
1704790071262693600,11.757693603515625,-1.2097744336903093,-1.235558863288164,2.485348496502638
1704790071272669400,11.76766943359375,-1.1658381882648914,-1.2037211250007152,2.6069991921842095
1704790071282645800,11.777645751953125,-1.1727309434533117,-1.1211211677253246,2.6945652474343773
1704790071292625700,11.787625732421875,-1.1850561720192432,-1.0938286716520786,2.717329744689166
1704790071302601500,11.7976015625,-1.2051193013608454,-1.139507303765416,2.8205484193623063
1704790071312577800,11.807577880859375,-1.1356757627785206,-1.0862801559686661,2.976128272652626
1704790071322553600,11.8175537109375,-1.09296131423302,-0.9908867680937051,3.1098101823896167
1704790071332529700,11.82752978515625,-1.073855558681488,-0.9769482591122388,3.1383567701771855
1704790071342504700,11.837504638671875,-1.0371066674768925,-0.9262912540644407,3.1895921596348282
1704790071352480800,11.847480712890626,-0.9384031321406364,-0.8183663013964891,3.2935996465981003
1704790071362456600,11.85745654296875,-0.858441706675291,-0.7803332156002522,3.3362504553228614
1704790071372432600,11.8674326171875,-0.7595955479979515,-0.6786918732464313,3.378913246746361
1704790071382408700,11.87740869140625,-0.6572007569283247,-0.6756634653359651,3.3583561964079736
1704790071392384800,11.887384765625,-0.5476379739254713,-0.6296025559067726,3.3191333163052796
1704790071402360600,11.897360595703125,-0.48598724464382975,-0.638389673474431,3.2367335577771064
1704790071412336600,11.907336669921875,-0.4037795015564188,-0.7358002463907003,3.151537154267728
1704790071422312700,11.917312744140625,-0.3573960456419736,-0.7758885111510753,3.0936490289226173
1704790071432288800,11.927288818359376,-0.23287300939448177,-0.849568079867959,3.007092735236883
1704790071442264600,11.9372646484375,-0.11782905503418296,-0.8968132306456565,2.9889117663800713
1704790071452240000,11.947239990234374,-0.00014784750547260046,-0.9105687842756509,2.95191269980669
1704790071462215700,11.957215576171874,0.06180559104979038,-1.0065648142188788,2.85586523193717
1704790071472191500,11.96719140625,0.15882044264674186,-1.0291665221273898,2.8227549894958734
1704790071482167800,11.977167724609375,0.1659469335258007,-1.0659195049852133,2.763426017692685
1704790071492143600,11.9871435546875,0.13318864632733166,-1.1463345194369554,2.719448928800225
1704790071502119400,11.997119384765625,0.15372637091074137,-1.2094745739609003,2.6659134457066656
1704790071512095700,12.007095703125,0.16344696993622929,-1.2364175259441137,2.5585765220597385
1704790071522071600,12.017071533203126,0.17245500024557112,-1.2227712779074906,2.448726738809049
1704790071532048000,12.0270478515625,0.11171966877579688,-1.2412813325881957,2.375734275573492
1704790071542023700,12.037023681640624,0.09956504753641783,-1.378826932016015,2.34641027367264
1704790071551999500,12.04699951171875,0.050716626280546184,-1.491685833954811,2.266492979609966
1704790071561974800,12.056974853515625,0.009247720816731453,-1.5276070421636103,2.1519716974169016
1704790071571950600,12.06695068359375,-0.0210789553206414,-1.5573814181804657,2.080255537727475
1704790071581926700,12.0769267578125,-0.04426065507419407,-1.642462086355686,1.9703484713315962
1704790071591902700,12.08690283203125,-0.15240714153833687,-1.807214841660857,1.8969900973930953
1704790071601878500,12.09687841796875,-0.25309739371240136,-2.137391967922449,1.816911183027923
1704790071611854600,12.1068544921875,-0.37578919594474136,-2.478876670140028,1.866263973609358
1704790071621830700,12.11683056640625,-0.5071340410362929,-2.797459220197797,1.9066043134346604
1704790071631806700,12.126806640625,-0.6133031630128621,-3.0431238335609434,1.8772716898359356
1704790071641782800,12.13678271484375,-0.7600631655097008,-3.2881448883235453,1.7553621970877051
1704790071651758600,12.146758544921875,-0.7905348761409521,-3.3423785828143355,1.6937709794409572
1704790071661734700,12.156734619140625,-0.8409177404224872,-3.327760274875164,1.446204624109715
1704790071671710700,12.166710693359375,-0.78761051312685,-3.2574335237175225,1.2732178550750017
1704790071681685800,12.176685791015625,-0.8303279573470354,-3.262501913022995,1.1352414630144834
1704790071691661600,12.18666162109375,-0.8472205668937415,-3.3393238714188334,0.9778585788901895
1704790071701637600,12.1966376953125,-0.8724806803565471,-3.4116134470820425,1.0113939148757607
1704790071711613700,12.20661376953125,-0.8776010921102017,-3.5524212631762024,0.9725491473704576
1704790071721589500,12.216589599609375,-1.0022884520739317,-3.593196925678849,0.8443537792857736
1704790071731565800,12.22656591796875,-1.1740215677857397,-3.7018215510487553,0.6551080224327742
1704790071741541600,12.236541748046875,-1.1808294942349196,-3.7172055826634165,0.6591826514605432
1704790071751517700,12.246517578125,-1.2427549122720956,-3.6002234633147716,0.5173675214873626
1704790071761493800,12.25649365234375,-1.362427585878968,-3.4728047056257725,0.3463111725259572
1704790071771469600,12.266469482421876,-1.4282611172705888,-3.3287902024447917,0.2712251710772514
1704790071781444600,12.276444580078126,-1.3921592917978762,-3.112089233237505,0.15416552951298654
1704790071791420700,12.286420654296874,-1.41608026561141,-2.9279385345011946,-0.04697305583804846
1704790071801396700,12.296396728515624,-1.511564838901162,-2.821377855923772,-0.24263328284323213
1704790071811372800,12.306372802734375,-1.5911083312153815,-2.8822125561147924,-0.2951246637113392
1704790071821348600,12.3163486328125,-1.4503040222525596,-2.9373084203928705,-0.31036373389735816
1704790071831324700,12.32632470703125,-1.3720529078364372,-2.753711263886094,-0.463807451941818
1704790071841300700,12.33630078125,-1.4849860440552234,-2.63297768304944,-0.7870237992800772
1704790071851276500,12.346276611328125,-1.4341758942723273,-2.5563492013990876,-0.8846294563770294
1704790071861252600,12.356252685546876,-1.3390882113456726,-2.637909294232726,-0.8616963245570659
1704790071871228700,12.366228759765624,-1.4035434401214122,-2.6699323259592056,-0.8771449458405375
1704790071881204500,12.37620458984375,-1.4589631295263767,-2.6011773541629313,-0.9534121929630637
1704790071891180800,12.386180908203125,-1.4601812731444834,-2.600248548880219,-1.1100474005252121
1704790071901155600,12.396155517578125,-1.5285411081433296,-2.569718970581889,-1.08638478538692
1704790071911131600,12.406131591796875,-1.5200444979548453,-2.415401100051403,-1.1053262172222136
1704790071921107700,12.416107666015625,-1.4954092383921145,-2.059275878062844,-1.3369903622835875
1704790071931083800,12.426083740234375,-1.6200013943530618,-1.6774100656181572,-1.583326591297984
1704790071941059600,12.4360595703125,-1.7381942046657204,-1.484949219176173,-1.6542960242733358
1704790071951035600,12.44603564453125,-1.7790636829316615,-1.3079402088880538,-1.7137676194176077
1704790071961011700,12.45601171875,-1.870833181221038,-0.9652671736687422,-1.8517428424343465
1704790071970987500,12.465987548828124,-1.89736389914155,-0.5529717361688613,-2.0241540035381913
1704790071980963600,12.475963623046875,-1.925341600999981,-0.16286065794825552,-2.1632775198072194
