time,seconds_elapsed,z,y,x
1704790059529790700,0.024790771484375,-0.9976043701171875,-0.295379638671875,-0.0811309814453125
1704790059539766500,0.0347666015625,-1.0310211181640625,-0.2758636474609375,-0.0901947021484375
1704790059549742600,0.04474267578125,-1.032196044921875,-0.28094482421875,-0.1113128662109375
1704790059559718700,0.05471875,-0.9960174560546875,-0.289581298828125,-0.0956573486328125
1704790059569694700,0.06469482421875,-0.90704345703125,-0.30126953125,-0.0870513916015625
1704790059579670800,0.0746708984375,-0.7612152099609375,-0.3108367919921875,-0.062774658203125
1704790059589645600,0.0846455078125,-0.6880340576171875,-0.32391357421875,-0.0901336669921875
1704790059599622000,0.094621826171875,-0.6763458251953125,-0.3618927001953125,-0.1386260986328125
1704790059609597700,0.10459765625,-0.7008209228515625,-0.3876495361328125,-0.1414794921875
1704790059619573500,0.114573486328125,-0.7369842529296875,-0.3894805908203125,-0.0941314697265625
1704790059629549800,0.1245498046875,-0.760528564453125,-0.3666839599609375,-0.005615234375
1704790059639525600,0.134525634765625,-0.8105926513671875,-0.407989501953125,0.0054473876953125
1704790059649501400,0.14450146484375,-0.9176177978515625,-0.4871368408203125,0.0473175048828125
1704790059659477800,0.154477783203125,-0.9697418212890625,-0.5531158447265625,0.133544921875
1704790059669453600,0.16445361328125,-1.007049560546875,-0.6162567138671875,0.2760772705078125
1704790059679428600,0.1744287109375,-0.987396240234375,-0.6258544921875,0.3311767578125
1704790059689404700,0.18440478515625,-0.907470703125,-0.4908447265625,0.1915130615234375
1704790059699380700,0.194380615234375,-0.853240966796875,-0.35382080078125,0.0227508544921875
1704790059709356500,0.2043564453125,-0.8212890625,-0.3469085693359375,-0.0402374267578125
1704790059719332600,0.21433251953125,-0.838409423828125,-0.4258270263671875,0.01312255859375
1704790059729308700,0.22430859375,-0.8728790283203125,-0.496917724609375,0.07049560546875
1704790059739284700,0.23428466796875,-0.9003448486328125,-0.489410400390625,0.0817718505859375
1704790059749260500,0.244260498046875,-0.86212158203125,-0.403594970703125,0.1065826416015625
1704790059759236600,0.254236572265625,-0.8549346923828125,-0.41302490234375,0.083251953125
1704790059769212700,0.264212646484375,-0.880218505859375,-0.4463043212890625,0.029327392578125
1704790059779187700,0.274187744140625,-0.88970947265625,-0.47479248046875,-0.01483154296875
1704790059789163500,0.28416357421875,-0.8951416015625,-0.500823974609375,-0.095184326171875
1704790059799139800,0.294139892578125,-0.9377593994140625,-0.5078887939453125,-0.208892822265625
1704790059809115600,0.30411572265625,-1.0054779052734375,-0.510467529296875,-0.2788848876953125
1704790059819091500,0.314091552734375,-1.0561065673828125,-0.4698486328125,-0.2103729248046875
1704790059829067800,0.32406787109375,-1.0715179443359375,-0.3859405517578125,-0.1265869140625
1704790059839043600,0.334043701171875,-1.036529541015625,-0.34942626953125,-0.0743255615234375
1704790059849019600,0.34401953125,-0.93121337890625,-0.3441162109375,-0.067138671875
1704790059858995700,0.35399560546875,-0.804168701171875,-0.3629913330078125,-0.0990753173828125
1704790059868970800,0.363970703125,-0.6884613037109375,-0.4027252197265625,-0.1585235595703125
1704790059878946600,0.373946533203125,-0.632904052734375,-0.46514892578125,-0.1711578369140625
1704790059888922600,0.383922607421875,-0.682342529296875,-0.5755462646484375,-0.12799072265625
1704790059898898700,0.393898681640625,-0.76666259765625,-0.6123504638671875,-0.18756103515625
1704790059908874800,0.403874755859375,-0.901123046875,-0.6107940673828125,-0.2515411376953125
1704790059918850600,0.4138505859375,-1.0445098876953125,-0.6197509765625,-0.2599945068359375
1704790059928826600,0.42382666015625,-1.107452392578125,-0.594451904296875,-0.2405548095703125
1704790059938802700,0.433802734375,-1.0884857177734375,-0.5602569580078125,-0.2140655517578125
1704790059948778800,0.44377880859375,-1.0356903076171875,-0.5520782470703125,-0.172698974609375
1704790059958754600,0.453754638671875,-1.000213623046875,-0.5677490234375,-0.1539306640625
1704790059968729900,0.463729736328125,-0.9681549072265625,-0.5931854248046875,-0.1835174560546875
1704790059978705700,0.47370556640625,-0.9429473876953125,-0.6306915283203125,-0.2268218994140625
1704790059988681500,0.483681396484375,-0.9109954833984375,-0.6663665771484375,-0.2340850830078125
1704790059998657800,0.49365771484375,-0.8860931396484375,-0.684173583984375,-0.2291717529296875
1704790060008633600,0.503633544921875,-0.8858489990234375,-0.68853759765625,-0.2364044189453125
1704790060018609700,0.513609619140625,-0.9055938720703125,-0.692535400390625,-0.23480224609375
1704790060028585700,0.523585693359375,-0.93865966796875,-0.67596435546875,-0.212982177734375
1704790060038561500,0.5335615234375,-0.9491119384765625,-0.6368560791015625,-0.1878814697265625
1704790060048537900,0.543537841796875,-0.929351806640625,-0.6454925537109375,-0.2014617919921875
1704790060058513700,0.553513671875,-0.856903076171875,-0.6307373046875,-0.172210693359375
1704790060068488700,0.56348876953125,-0.7870941162109375,-0.6095733642578125,-0.148040771484375
1704790060078464800,0.57346484375,-0.7567291259765625,-0.6075897216796875,-0.151458740234375
1704790060088440600,0.583440673828125,-0.7601776123046875,-0.621307373046875,-0.1738433837890625
1704790060098416600,0.593416748046875,-0.8343048095703125,-0.631744384765625,-0.211090087890625
1704790060108392700,0.603392822265625,-0.8983154296875,-0.6337738037109375,-0.23284912109375
1704790060118368500,0.613368408203125,-0.88104248046875,-0.6127777099609375,-0.2132720947265625
1704790060128344800,0.6233447265625,-0.82513427734375,-0.57916259765625,-0.1851806640625
1704790060138320600,0.633320556640625,-0.780029296875,-0.5365753173828125,-0.1495208740234375
1704790060148296700,0.643296630859375,-0.7500152587890625,-0.4914703369140625,-0.1092071533203125
1704790060158271500,0.653271484375,-0.7455291748046875,-0.4790496826171875,-0.0863189697265625
1704790060168247800,0.663247802734375,-0.7364654541015625,-0.496490478515625,-0.09393310546875
1704790060178223600,0.6732236328125,-0.7158966064453125,-0.5266876220703125,-0.10357666015625
1704790060188199700,0.68319970703125,-0.7005767822265625,-0.5579833984375,-0.1211395263671875
1704790060198175700,0.69317578125,-0.7022857666015625,-0.5794830322265625,-0.16015625
1704790060208151600,0.703151611328125,-0.7290802001953125,-0.61407470703125,-0.2419586181640625
1704790060218127600,0.713127685546875,-0.78472900390625,-0.6662445068359375,-0.2555389404296875
1704790060228103700,0.723103759765625,-0.824859619140625,-0.706024169921875,-0.2210540771484375
1704790060238079500,0.73307958984375,-0.8280792236328125,-0.6829833984375,-0.20355224609375
1704790060248054800,0.7430546875,-0.838714599609375,-0.6301727294921875,-0.225372314453125
1704790060258030600,0.753030517578125,-0.8322906494140625,-0.6237335205078125,-0.223236083984375
1704790060268006700,0.763006591796875,-0.789276123046875,-0.6339111328125,-0.239593505859375
1704790060277983200,0.772983154296875,-0.708251953125,-0.66278076171875,-0.2664947509765625
1704790060287959000,0.782958984375,-0.628082275390625,-0.706451416015625,-0.3087921142578125
1704790060297935000,0.79293505859375,-0.6049346923828125,-0.7336883544921875,-0.391632080078125
1704790060307911200,0.8029111328125,-0.6567230224609375,-0.766754150390625,-0.434600830078125
1704790060317887000,0.812886962890625,-0.700775146484375,-0.7920074462890625,-0.4026336669921875
1704790060327863000,0.822863037109375,-0.6550140380859375,-0.75152587890625,-0.41754150390625
1704790060337839000,0.832839111328125,-0.55279541015625,-0.7044525146484375,-0.41668701171875
1704790060347814100,0.842814208984375,-0.4254913330078125,-0.6949310302734375,-0.3889617919921875
1704790060357790000,0.8527900390625,-0.321380615234375,-0.68450927734375,-0.383697509765625
1704790060367766000,0.86276611328125,-0.234954833984375,-0.7051544189453125,-0.4306488037109375
1704790060377742000,0.8727421875,-0.1657257080078125,-0.7444000244140625,-0.483734130859375
1704790060387718000,0.8827177734375,-0.1288299560546875,-0.7653045654296875,-0.5623321533203125
1704790060397694200,0.892694091796875,-0.1128997802734375,-0.774139404296875,-0.5603485107421875
1704790060407670000,0.902669921875,-0.1460418701171875,-0.7602996826171875,-0.5338592529296875
1704790060417646000,0.91264599609375,-0.1390380859375,-0.7226715087890625,-0.5377960205078125
1704790060427622100,0.9226220703125,-0.084503173828125,-0.7183990478515625,-0.510772705078125
1704790060437597000,0.932596923828125,-0.048675537109375,-0.7268218994140625,-0.5267486572265625
1704790060447573200,0.9425732421875,-0.0109100341796875,-0.7542266845703125,-0.515533447265625
1704790060457549000,0.952549072265625,0.007904052734375,-0.7934112548828125,-0.5283966064453125
1704790060467525000,0.962525146484375,-0.005157470703125,-0.7868194580078125,-0.56158447265625
1704790060477501200,0.972501220703125,-0.00079345703125,-0.7551422119140625,-0.5689239501953125
1704790060487477000,0.98247705078125,0.015380859375,-0.73858642578125,-0.5572052001953125
1704790060497453000,0.992453125,0.072265625,-0.7471466064453125,-0.576141357421875
1704790060507429000,1.00242919921875,0.133148193359375,-0.772796630859375,-0.5901336669921875
1704790060517405000,1.012405029296875,0.16827392578125,-0.7839508056640625,-0.608123779296875
1704790060527381200,1.02238134765625,0.1795501708984375,-0.79302978515625,-0.618499755859375
1704790060537356000,1.03235595703125,0.1877593994140625,-0.806549072265625,-0.622406005859375
1704790060547332000,1.04233203125,0.156890869140625,-0.8186187744140625,-0.61309814453125
1704790060557308000,1.052307861328125,0.1093597412109375,-0.820098876953125,-0.6694183349609375
1704790060567284200,1.0622841796875,0.1500244140625,-0.8024139404296875,-0.601165771484375
1704790060577260000,1.072260009765625,0.1695709228515625,-0.76568603515625,-0.5930023193359375
1704790060587236000,1.082236083984375,0.1727294921875,-0.799652099609375,-0.5773773193359375
1704790060597212200,1.092212158203125,0.1360931396484375,-0.8036651611328125,-0.601287841796875
1704790060607188000,1.10218798828125,0.083770751953125,-0.7404937744140625,-0.57977294921875
1704790060617164000,1.1121640625,0.0941009521484375,-0.72003173828125,-0.5867462158203125
1704790060627139000,1.12213916015625,0.1051483154296875,-0.8444671630859375,-0.620941162109375
1704790060637115000,1.132114990234375,0.08831787109375,-0.91143798828125,-0.666107177734375
1704790060647091200,1.14209130859375,0.116790771484375,-0.9156341552734375,-0.7401580810546875
1704790060657067000,1.15206689453125,0.1804962158203125,-0.8818511962890625,-0.6721343994140625
1704790060667043000,1.16204296875,0.209747314453125,-0.823577880859375,-0.595306396484375
1704790060677019100,1.17201904296875,0.2197113037109375,-0.799285888671875,-0.5831298828125
1704790060686995000,1.181994873046875,0.215179443359375,-0.8109588623046875,-0.599853515625
1704790060696971300,1.19197119140625,0.1578826904296875,-0.813507080078125,-0.5888824462890625
1704790060706947000,1.201947021484375,0.0781707763671875,-0.8002777099609375,-0.593353271484375
1704790060716923000,1.2119228515625,0.1082305908203125,-0.732696533203125,-0.60369873046875
1704790060726898000,1.22189794921875,0.154937744140625,-0.6919097900390625,-0.596923828125
1704790060736874000,1.2318740234375,0.2342529296875,-0.690399169921875,-0.5960540771484375
1704790060746850000,1.24185009765625,0.323638916015625,-0.6829833984375,-0.6190338134765625
1704790060756826000,1.251826171875,0.3880157470703125,-0.666168212890625,-0.655426025390625
1704790060766802200,1.26180224609375,0.38848876953125,-0.6334075927734375,-0.6562347412109375
1704790060776778000,1.271778076171875,0.401397705078125,-0.57861328125,-0.6685943603515625
1704790060786754000,1.281754150390625,0.3905029296875,-0.697540283203125,-0.765869140625
1704790060796730000,1.291730224609375,0.3790435791015625,-0.69732666015625,-0.756134033203125
1704790060806706200,1.3017060546875,0.4238433837890625,-0.706268310546875,-0.8144378662109375
1704790060816681200,1.31168115234375,0.465911865234375,-0.6742706298828125,-0.7856292724609375
1704790060826657000,1.321656982421875,0.43109130859375,-0.6290435791015625,-0.7583465576171875
1704790060836633000,1.331633056640625,0.351593017578125,-0.62457275390625,-0.7714996337890625
1704790060846609200,1.341609130859375,0.3294677734375,-0.619903564453125,-0.7585906982421875
1704790060856585000,1.3515849609375,0.3806610107421875,-0.6024627685546875,-0.7585906982421875
1704790060866561300,1.361561279296875,0.4301605224609375,-0.5853271484375,-0.743865966796875
1704790060876537000,1.371537109375,0.470947265625,-0.5784759521484375,-0.7187347412109375
1704790060886513000,1.381512939453125,0.5153350830078125,-0.5863800048828125,-0.727813720703125
1704790060896489200,1.3914892578125,0.5368194580078125,-0.5960845947265625,-0.731353759765625
1704790060906465000,1.401465087890625,0.509490966796875,-0.607086181640625,-0.729522705078125
1704790060916440000,1.411440185546875,0.480255126953125,-0.54901123046875,-0.693206787109375
1704790060926416100,1.421416015625,0.4850616455078125,-0.62432861328125,-0.6981048583984375
1704790060936392200,1.43139208984375,0.4524688720703125,-0.5897979736328125,-0.687835693359375
1704790060946368000,1.441367919921875,0.447784423828125,-0.560394287109375,-0.75811767578125
1704790060956344000,1.451343994140625,0.4408416748046875,-0.5830230712890625,-0.6879730224609375
1704790060966320000,1.461320068359375,0.471771240234375,-0.5607757568359375,-0.652191162109375
1704790060976296200,1.471296142578125,0.47607421875,-0.5522613525390625,-0.628814697265625
1704790060986272000,1.48127197265625,0.4322357177734375,-0.5571441650390625,-0.636322021484375
1704790060996248000,1.491248046875,0.414276123046875,-0.5618438720703125,-0.6523284912109375
1704790061006222800,1.501222900390625,0.3151702880859375,-0.57965087890625,-0.7020416259765625
1704790061016199200,1.51119921875,0.549957275390625,-0.5529937744140625,-0.7889251708984375
1704790061026175000,1.521175048828125,0.332061767578125,-0.6472625732421875,-0.6257171630859375
1704790061036151300,1.5311513671875,0.4415283203125,-0.53955078125,-0.7163238525390625
1704790061046127000,1.541127197265625,0.4869537353515625,-0.5580902099609375,-0.6084747314453125
1704790061056103000,1.55110302734375,0.45233154296875,-0.5703887939453125,-0.603790283203125
1704790061066079200,1.561079345703125,0.4151153564453125,-0.56005859375,-0.6148834228515625
1704790061076055000,1.571054931640625,0.3771820068359375,-0.5755157470703125,-0.6042938232421875
1704790061086030800,1.58103076171875,0.396881103515625,-0.5638275146484375,-0.6267852783203125
1704790061096007200,1.591007080078125,0.43499755859375,-0.5874176025390625,-0.6005401611328125
1704790061105982000,1.60098193359375,0.4297027587890625,-0.6295013427734375,-0.5871734619140625
1704790061115958000,1.6109580078125,0.3848876953125,-0.657257080078125,-0.6042022705078125
1704790061125934000,1.62093408203125,0.3321075439453125,-0.65484619140625,-0.63885498046875
1704790061135910100,1.63091015625,0.212249755859375,-0.6854248046875,-0.5669097900390625
1704790061145886200,1.64088623046875,0.86212158203125,-0.518402099609375,-0.663055419921875
1704790061155862000,1.650862060546875,0.1927032470703125,-0.7071990966796875,-0.67559814453125
1704790061165838000,1.660838134765625,0.482513427734375,-0.697479248046875,-0.462860107421875
1704790061175814100,1.670814208984375,0.8072662353515625,-0.666595458984375,-0.37933349609375
1704790061185790000,1.6807900390625,0.7456207275390625,-0.6442108154296875,-0.5036163330078125
1704790061195765000,1.690764892578125,0.721435546875,-0.6182861328125,-0.5067291259765625
1704790061205741000,1.700740966796875,0.569732666015625,-0.65106201171875,-0.531494140625
1704790061215717000,1.710717041015625,0.486663818359375,-0.6729583740234375,-0.5478668212890625
1704790061225693000,1.72069287109375,0.4525909423828125,-0.65924072265625,-0.5455474853515625
1704790061235669200,1.730669189453125,0.442718505859375,-0.640228271484375,-0.471954345703125
1704790061245645000,1.74064501953125,0.4598541259765625,-0.6606903076171875,-0.5386962890625
1704790061255620900,1.750620849609375,0.42926025390625,-0.705902099609375,-0.5089874267578125
1704790061265597200,1.76059716796875,0.394256591796875,-0.7158355712890625,-0.4263763427734375
1704790061275573000,1.770572998046875,0.4067535400390625,-0.6979217529296875,-0.4330291748046875
1704790061285548800,1.780548828125,0.3876800537109375,-0.688140869140625,-0.38348388671875
1704790061295523800,1.79052392578125,0.399871826171875,-0.7487945556640625,-0.484130859375
1704790061305500000,1.8005,0.41900634765625,-0.7683258056640625,-0.5186309814453125
1704790061315476000,1.81047607421875,0.39312744140625,-0.79290771484375,-0.4967803955078125
1704790061325451800,1.82045166015625,0.3965301513671875,-0.798431396484375,-0.5098114013671875
1704790061335428000,1.830427978515625,0.380035400390625,-0.7822113037109375,-0.5400848388671875
1704790061345404000,1.84040380859375,0.3712158203125,-0.8022918701171875,-0.5604400634765625
1704790061355379700,1.850379638671875,0.428741455078125,-0.7747955322265625,-0.5849609375
1704790061365356000,1.86035595703125,0.4000396728515625,-0.7892608642578125,-0.55853271484375
1704790061375331800,1.870331787109375,0.3585357666015625,-0.8350677490234375,-0.5279388427734375
1704790061385307000,1.880306884765625,0.3563995361328125,-0.8467864990234375,-0.5386505126953125
1704790061395283000,1.890282958984375,0.3595733642578125,-0.8482513427734375,-0.5391082763671875
1704790061405259000,1.900259033203125,0.34716796875,-0.8398590087890625,-0.508392333984375
1704790061415234800,1.91023486328125,0.3414459228515625,-0.829681396484375,-0.5332794189453125
1704790061425211000,1.9202109375,0.3423309326171875,-0.8176422119140625,-0.651763916015625
1704790061435187000,1.93018701171875,0.3085174560546875,-0.7955780029296875,-0.5865936279296875
1704790061445163000,1.9401630859375,0.304534912109375,-0.850189208984375,-0.4754486083984375
1704790061455138800,1.950138916015625,0.38323974609375,-0.8147735595703125,-0.4709320068359375
1704790061465115000,1.960114990234375,0.4231414794921875,-0.740203857421875,-0.5339202880859375
1704790061475091000,1.970091064453125,0.389739990234375,-0.7247314453125,-0.505584716796875
1704790061485066000,1.98006591796875,0.37030029296875,-0.7676849365234375,-0.4873046875
1704790061495041800,1.990041748046875,0.3774566650390625,-0.73651123046875,-0.503875732421875
1704790061505018000,2.00001806640625,0.360107421875,-0.7407073974609375,-0.5121917724609375
1704790061514994000,2.009993896484375,0.3017730712890625,-0.8164825439453125,-0.5309600830078125
1704790061524969700,2.0199697265625,0.322265625,-0.82830810546875,-0.506011962890625
1704790061534946000,2.029946044921875,0.322998046875,-0.7958526611328125,-0.497772216796875
1704790061544921900,2.039921875,0.3831329345703125,-0.7353363037109375,-0.483367919921875
1704790061554898000,2.04989794921875,0.3901519775390625,-0.747650146484375,-0.51220703125
1704790061564874000,2.0598740234375,0.3437652587890625,-0.78057861328125,-0.539276123046875
1704790061574848800,2.069848876953125,0.3441009521484375,-0.7934722900390625,-0.5401611328125
1704790061584824800,2.079824951171875,0.349395751953125,-0.8087158203125,-0.5383758544921875
1704790061594801000,2.08980078125,0.3648834228515625,-0.8100738525390625,-0.5376129150390625
1704790061604777000,2.09977685546875,0.3716583251953125,-0.7855224609375,-0.5485687255859375
1704790061614753000,2.1097529296875,0.332305908203125,-0.7833099365234375,-0.5581512451171875
1704790061624728800,2.119728759765625,0.2492828369140625,-0.8144073486328125,-0.568450927734375
1704790061634705000,2.129704833984375,0.3954620361328125,-0.7757415771484375,-0.5198516845703125
1704790061644681000,2.139680908203125,0.4368743896484375,-0.71759033203125,-0.503814697265625
1704790061654656800,2.14965673828125,0.3436279296875,-0.7409515380859375,-0.48236083984375
1704790061664632800,2.1596328125,0.3382415771484375,-0.759063720703125,-0.457183837890625
1704790061674607900,2.16960791015625,0.320037841796875,-0.7651824951171875,-0.469207763671875
1704790061684584000,2.179583984375,0.310028076171875,-0.782745361328125,-0.4599609375
1704790061694559700,2.189559814453125,0.3329620361328125,-0.792724609375,-0.4437408447265625
1704790061704536000,2.1995361328125,0.32879638671875,-0.79345703125,-0.4470062255859375
1704790061714512000,2.209511962890625,0.2933807373046875,-0.8248748779296875,-0.4445953369140625
1704790061724488000,2.219488037109375,0.2623138427734375,-0.838531494140625,-0.4417724609375
1704790061734464000,2.229464111328125,0.2693939208984375,-0.8379669189453125,-0.4419708251953125
1704790061744439800,2.239439697265625,0.31884765625,-0.8349456787109375,-0.435577392578125
1704790061754415900,2.249415771484375,0.342315673828125,-0.8265380859375,-0.418792724609375
1704790061764391000,2.259390869140625,0.3451385498046875,-0.813079833984375,-0.4406280517578125
1704790061774367000,2.269366943359375,0.336761474609375,-0.8037872314453125,-0.477813720703125
1704790061784343000,2.279343017578125,0.3137359619140625,-0.79339599609375,-0.5054168701171875
1704790061794318800,2.28931884765625,0.3038177490234375,-0.774749755859375,-0.5037841796875
1704790061804295000,2.299294921875,0.31884765625,-0.783355712890625,-0.50604248046875
1704790061814271000,2.30927099609375,0.3339691162109375,-0.8245391845703125,-0.525726318359375
1704790061824246800,2.319246826171875,0.31158447265625,-0.84527587890625,-0.5328826904296875
1704790061834222800,2.329222900390625,0.3170928955078125,-0.8437652587890625,-0.5408782958984375
1704790061844199000,2.339198974609375,0.316864013671875,-0.8201751708984375,-0.4878692626953125
1704790061854174000,2.349174072265625,0.297821044921875,-0.8201904296875,-0.3803253173828125
1704790061864149800,2.359149658203125,0.3005523681640625,-0.846343994140625,-0.3369903564453125
1704790061874126000,2.3691259765625,0.2647705078125,-0.883392333984375,-0.3200836181640625
1704790061884102000,2.379101806640625,0.2386932373046875,-0.934356689453125,-0.2564544677734375
1704790061894078000,2.389077880859375,0.235443115234375,-0.973358154296875,-0.208740234375
1704790061904054000,2.399053955078125,0.2843780517578125,-0.9910736083984375,-0.187957763671875
1704790061914029800,2.40902978515625,0.3096466064453125,-0.9513092041015625,-0.176971435546875
1704790061924006000,2.419005859375,0.3103485107421875,-0.914398193359375,-0.174041748046875
1704790061933982000,2.42898193359375,0.3152618408203125,-0.8818206787109375,-0.23443603515625
1704790061943957800,2.438957763671875,0.2923583984375,-0.869171142578125,-0.269866943359375
1704790061953933000,2.44893310546875,0.269195556640625,-0.8419189453125,-0.2705078125
1704790061963908900,2.458908935546875,0.2630157470703125,-0.7769775390625,-0.2859649658203125
1704790061973885000,2.468885009765625,0.2401885986328125,-0.7177276611328125,-0.3350372314453125
1704790061983861000,2.478861083984375,0.237213134765625,-0.6915130615234375,-0.3663482666015625
1704790061993836800,2.4888369140625,0.2403717041015625,-0.6920928955078125,-0.36322021484375
1704790062003812900,2.498812744140625,0.219085693359375,-0.7350311279296875,-0.3129119873046875
1704790062013789000,2.508788818359375,0.1863555908203125,-0.8086090087890625,-0.266571044921875
1704790062023764700,2.5187646484375,0.2021026611328125,-0.842193603515625,-0.2725982666015625
1704790062033741000,2.528740966796875,0.2368621826171875,-0.8657684326171875,-0.2697906494140625
1704790062043715800,2.5387158203125,0.27105712890625,-0.88714599609375,-0.223785400390625
1704790062053692000,2.54869189453125,0.2933807373046875,-0.891815185546875,-0.1495361328125
1704790062063668000,2.55866796875,0.3134307861328125,-0.9330596923828125,-0.1132354736328125
1704790062073644000,2.56864404296875,0.282928466796875,-0.9381103515625,-0.1119537353515625
1704790062083619800,2.578619873046875,0.24273681640625,-0.9395751953125,-0.1194610595703125
1704790062093596000,2.588595947265625,0.2407379150390625,-0.9462127685546875,-0.110870361328125
1704790062103572000,2.598572021484375,0.261077880859375,-0.938385009765625,-0.1360626220703125
1704790062113547800,2.6085478515625,0.2434844970703125,-0.931640625,-0.21484375
1704790062123523800,2.61852392578125,0.2183074951171875,-0.9441375732421875,-0.2395782470703125
1704790062133500000,2.6285,0.2096405029296875,-0.969879150390625,-0.235443115234375
1704790062143475000,2.638474853515625,0.18145751953125,-0.97705078125,-0.26580810546875
1704790062153451000,2.648450927734375,0.1743621826171875,-0.9562835693359375,-0.242584228515625
1704790062163426800,2.6584267578125,0.2020721435546875,-0.943603515625,-0.1722412109375
1704790062173403100,2.668403076171875,0.161834716796875,-1.020172119140625,-0.182464599609375
1704790062183379000,2.67837890625,0.1454010009765625,-1.0604248046875,-0.0862884521484375
1704790062193354800,2.688354736328125,0.2183685302734375,-1.0480499267578125,-0.0268707275390625
1704790062203331000,2.6983310546875,0.2373046875,-1.06243896484375,-0.0074310302734375
1704790062213307000,2.708306884765625,0.2288818359375,-1.0704345703125,0.0041961669921875
1704790062223282700,2.71828271484375,0.2525482177734375,-1.01446533203125,0.0175933837890625
1704790062233258000,2.728258056640625,0.2320709228515625,-0.95245361328125,-0.0360870361328125
1704790062243233800,2.73823388671875,0.194549560546875,-0.9472198486328125,-0.015625
1704790062253209900,2.7482099609375,0.200286865234375,-0.966400146484375,-0.0528564453125
1704790062263186000,2.75818603515625,0.1913909912109375,-0.9864044189453125,-0.0658721923828125
1704790062273162000,2.768161865234375,0.1907501220703125,-0.9792938232421875,-0.0697021484375
1704790062283137800,2.7781376953125,0.2030029296875,-0.9818878173828125,-0.08441162109375
1704790062293113600,2.788113525390625,0.204681396484375,-0.953460693359375,-0.1193695068359375
1704790062303089700,2.798089599609375,0.154205322265625,-0.959808349609375,-0.0971527099609375
1704790062313065700,2.808065673828125,0.1308746337890625,-0.9946136474609375,-0.0865936279296875
1704790062323041800,2.818041748046875,0.110504150390625,-1.0533294677734375,-0.084716796875
1704790062333016600,2.8280166015625,0.1163177490234375,-1.1345062255859375,-0.003692626953125
1704790062342993000,2.837992919921875,0.1745758056640625,-1.1503143310546875,0.03564453125
1704790062352968700,2.84796875,0.22076416015625,-1.125885009765625,0.0278472900390625
1704790062362944500,2.857944580078125,0.1958160400390625,-1.110565185546875,0.0312957763671875
1704790062372920800,2.8679208984375,0.1929168701171875,-1.0942230224609375,0.014068603515625
1704790062382896600,2.877896728515625,0.1916656494140625,-1.0858154296875,0.003875732421875
1704790062392872700,2.887872802734375,0.199676513671875,-1.0575103759765625,-0.0126800537109375
1704790062402848800,2.897848876953125,0.1337738037109375,-1.0498199462890625,0.008148193359375
1704790062412824600,2.907824462890625,0.1720733642578125,-1.000152587890625,0.0324554443359375
1704790062422801000,2.91780078125,0.1281585693359375,-1.0018310546875,0.0342254638671875
1704790062432775700,2.927775634765625,0.1049346923828125,-0.9817657470703125,0.011077880859375
1704790062442751700,2.937751708984375,0.113525390625,-0.9374847412109375,-0.0305023193359375
1704790062452727800,2.947727783203125,0.110992431640625,-0.9179229736328125,-0.0583648681640625
1704790062462703600,2.95770361328125,0.094146728515625,-0.934783935546875,-0.060943603515625
1704790062472679700,2.9676796875,0.0696868896484375,-0.964202880859375,-0.024810791015625
1704790062482655700,2.97765576171875,0.115966796875,-0.983978271484375,-0.0240020751953125
1704790062492631600,2.987631591796875,0.16571044921875,-1.0028839111328125,-0.04974365234375
1704790062502607600,2.997607666015625,0.1491546630859375,-1.0232391357421875,-0.03387451171875
1704790062512583700,3.007583740234375,0.126922607421875,-1.0372467041015625,-0.0265655517578125
1704790062522558700,3.017558837890625,0.144195556640625,-1.03289794921875,-0.021270751953125
1704790062532534500,3.027534423828125,0.208251953125,-0.996368408203125,-0.0449371337890625
1704790062542510800,3.0375107421875,0.312286376953125,-0.9156036376953125,-0.063140869140625
1704790062552486700,3.047486572265625,0.178070068359375,-0.916839599609375,-0.02752685546875
1704790062562462700,3.057462646484375,0.160369873046875,-0.8938140869140625,-0.02850341796875
1704790062572438800,3.067438720703125,0.0524749755859375,-0.9734344482421875,-0.0056304931640625
1704790062582414600,3.07741455078125,0.081512451171875,-0.996673583984375,-0.0503692626953125
1704790062592390700,3.087390625,0.1708221435546875,-0.9673004150390625,-0.044891357421875
1704790062602366700,3.09736669921875,0.193389892578125,-1.0421142578125,-0.0064697265625
1704790062612342500,3.107342529296875,0.1512298583984375,-1.046966552734375,0.0290679931640625
1704790062622317800,3.11731787109375,0.1457366943359375,-1.0111236572265625,0.026702880859375
1704790062632293600,3.127293701171875,0.1580352783203125,-0.974609375,-0.0091705322265625
1704790062642269700,3.137269775390625,0.194091796875,-0.95208740234375,-0.02020263671875
1704790062652245800,3.147245849609375,0.2029571533203125,-0.93310546875,-0.0235137939453125
1704790062662221600,3.1572216796875,0.123779296875,-0.9438934326171875,-0.0157318115234375
1704790062672197600,3.16719775390625,0.0892486572265625,-0.934722900390625,0.12677001953125
1704790062682173700,3.177173583984375,0.1420745849609375,-0.9541015625,0.06146240234375
1704790062692149800,3.187149658203125,0.1915283203125,-0.92486572265625,0.0063323974609375
1704790062702125800,3.197125732421875,0.1612701416015625,-0.9459686279296875,0.05712890625
1704790062712100900,3.207100830078125,0.08624267578125,-0.965850830078125,0.042694091796875
1704790062722076700,3.21707666015625,0.0827178955078125,-0.9359130859375,-0.0221405029296875
1704790062732052700,3.227052734375,0.073455810546875,-0.9209747314453125,-0.0528106689453125
1704790062742028800,3.23702880859375,0.053070068359375,-0.9624786376953125,-0.00811767578125
1704790062752004600,3.247004638671875,0.0499267578125,-1.0128326416015625,0.023773193359375
1704790062761980700,3.256980712890625,0.05853271484375,-1.0613555908203125,0.042205810546875
1704790062771956700,3.266956787109375,0.053558349609375,-1.0646514892578125,0.068572998046875
1704790062781932500,3.2769326171875,0.0523529052734375,-1.007080078125,0.062225341796875
1704790062791908900,3.286908935546875,0.0830078125,-0.9679718017578125,0.0584716796875
1704790062801884700,3.296884765625,0.0728912353515625,-1.00042724609375,0.0697479248046875
1704790062811859700,3.306859619140625,0.053680419921875,-1.0339202880859375,0.072509765625
1704790062821835800,3.316835693359375,0.077362060546875,-1.0262451171875,0.0763702392578125
1704790062831811600,3.3268115234375,0.0986785888671875,-0.9896697998046875,0.0579071044921875
1704790062841788000,3.336787841796875,0.101165771484375,-0.97491455078125,0.043121337890625
1704790062851763700,3.346763671875,0.06158447265625,-1.0379791259765625,0.0530242919921875
1704790062861739500,3.356739501953125,0.1483001708984375,-1.1001129150390625,0.031646728515625
1704790062871715800,3.3667158203125,0.1110076904296875,-1.123138427734375,0.00885009765625
1704790062881691600,3.376691650390625,0.05731201171875,-0.948822021484375,0.117401123046875
1704790062891667700,3.386667724609375,0.1461639404296875,-0.8430633544921875,0.2300872802734375
1704790062901642800,3.396642822265625,0.062530517578125,-0.9008026123046875,0.1262969970703125
1704790062911618800,3.406618896484375,0.1074066162109375,-0.9120635986328125,0.0525360107421875
1704790062921594600,3.4165947265625,0.089324951171875,-1.0008087158203125,0.06854248046875
1704790062931570700,3.42657080078125,0.038330078125,-1.0220947265625,0.052032470703125
1704790062941546800,3.436546630859375,0.0950469970703125,-0.96649169921875,0.088134765625
1704790062951522600,3.4465224609375,0.2398529052734375,-0.875,0.111572265625
1704790062961498600,3.45649853515625,0.1300506591796875,-0.9990692138671875,0.1222381591796875
1704790062971474700,3.466474609375,-0.1326446533203125,-1.0735626220703125,0.0166473388671875
1704790062981450800,3.47645068359375,-0.0546417236328125,-0.9136810302734375,0.0059661865234375
1704790062991426800,3.4864267578125,0.058746337890625,-0.8214263916015625,0.0337677001953125
1704790063001401600,3.496401611328125,0.0268096923828125,-0.8709259033203125,0.0150299072265625
1704790063011378000,3.5063779296875,0.008270263671875,-0.86773681640625,0.031951904296875
1704790063021353700,3.516353759765625,0.0209503173828125,-0.8611602783203125,0.047393798828125
1704790063031329500,3.52632958984375,0.077056884765625,-0.8647308349609375,0.05267333984375
1704790063041305900,3.536305908203125,0.0781402587890625,-0.918121337890625,0.07275390625
1704790063051281700,3.54628173828125,0.0030364990234375,-0.951385498046875,0.113250732421875
1704790063061257700,3.5562578125,0.0278778076171875,-0.876373291015625,0.1315460205078125
1704790063071233800,3.56623388671875,0.0585784912109375,-0.90545654296875,0.0793304443359375
1704790063081209600,3.576209716796875,0.1359405517578125,-0.9579620361328125,0.1333770751953125
1704790063091184600,3.5861845703125,0.2062530517578125,-0.987884521484375,0.151123046875
1704790063101160700,3.59616064453125,0.276641845703125,-1.0037841796875,0.143524169921875
1704790063111136800,3.60613671875,0.338958740234375,-1.0204315185546875,0.1619110107421875
1704790063121112600,3.616112548828125,0.3391876220703125,-1.0628662109375,0.2170562744140625
1704790063131088600,3.626088623046875,0.301513671875,-1.12542724609375,0.2852325439453125
1704790063141064700,3.636064697265625,0.274139404296875,-1.1254425048828125,0.325164794921875
1704790063151040800,3.646040771484375,0.2556610107421875,-1.07550048828125,0.255157470703125
1704790063161016600,3.6560166015625,0.1696319580078125,-1.00762939453125,0.1929168701171875
1704790063170992600,3.66599267578125,0.101806640625,-0.89324951171875,0.1783905029296875
1704790063180967700,3.6759677734375,0.07623291015625,-0.8727874755859375,0.1478729248046875
1704790063190943700,3.68594384765625,0.059600830078125,-0.8401031494140625,0.13616943359375
1704790063200919600,3.69591943359375,0.0818023681640625,-0.798736572265625,0.0909423828125
1704790063210896000,3.705895751953125,0.090667724609375,-0.7612457275390625,0.052642822265625
1704790063220871700,3.71587158203125,0.0916900634765625,-0.7448883056640625,0.11846923828125
1704790063230847500,3.725847412109375,0.0720672607421875,-0.7671661376953125,0.1195068359375
1704790063240823800,3.73582373046875,0.070953369140625,-0.791717529296875,-0.0159454345703125
1704790063250799600,3.745799560546875,0.0804443359375,-0.7836761474609375,0.0048675537109375
1704790063260775700,3.755775634765625,0.05657958984375,-0.7430877685546875,0.04248046875
1704790063270751700,3.765751708984375,0.0772552490234375,-0.798583984375,0.053985595703125
1704790063280726800,3.775726806640625,0.0619659423828125,-0.8453826904296875,0.05169677734375
1704790063290703000,3.785703125,0.056182861328125,-0.8587188720703125,0.079833984375
1704790063300679000,3.795678955078125,0.0484771728515625,-0.8795623779296875,0.055389404296875
1704790063310655000,3.805655029296875,0.0340576171875,-0.879241943359375,0.048431396484375
1704790063320631000,3.815631103515625,0.032989501953125,-0.8877410888671875,0.043701171875
1704790063330606800,3.82560693359375,0.0267791748046875,-0.895355224609375,0.0255279541015625
1704790063340583000,3.8355830078125,0.01861572265625,-0.8772430419921875,0.0111541748046875
1704790063350559000,3.84555908203125,0.0081939697265625,-0.849029541015625,-0.00732421875
1704790063360534800,3.85553466796875,-0.0124053955078125,-0.859466552734375,-0.018157958984375
1704790063370511000,3.865510986328125,-0.033935546875,-0.886871337890625,0.0027923583984375
1704790063380486000,3.87548583984375,-0.0534515380859375,-0.9165802001953125,0.0108184814453125
1704790063390462000,3.8854619140625,-0.0834197998046875,-0.9414520263671875,0.0190887451171875
1704790063400437800,3.895437744140625,-0.087432861328125,-0.9553375244140625,0.0210418701171875
1704790063410414000,3.9054140625,-0.1117401123046875,-0.963165283203125,0.00775146484375
1704790063420390000,3.915389892578125,-0.1310577392578125,-0.9687042236328125,0.006439208984375
1704790063430366000,3.925365966796875,-0.150665283203125,-0.969482421875,0.0029754638671875
1704790063440342000,3.935342041015625,-0.1641693115234375,-0.982940673828125,0.0107269287109375
1704790063450317800,3.94531787109375,-0.1739501953125,-1.0070953369140625,0.0345001220703125
1704790063460294000,3.9552939453125,-0.1818695068359375,-1.0208282470703125,0.0323333740234375
1704790063470269000,3.96526904296875,-0.187652587890625,-1.0387420654296875,0.0139312744140625
1704790063480245000,3.975244873046875,-0.1910552978515625,-1.0625762939453125,-0.00177001953125
1704790063490221000,3.985220947265625,-0.1922149658203125,-1.0791168212890625,0.0042266845703125
1704790063500196900,3.99519677734375,-0.18927001953125,-1.0955352783203125,0.0171966552734375
1704790063510173000,4.0051728515625,-0.1892852783203125,-1.10235595703125,0.010528564453125
1704790063520149000,4.01514892578125,-0.18878173828125,-1.1043243408203125,0.0038604736328125
1704790063530124800,4.025124755859375,-0.192230224609375,-1.1254730224609375,0.0113372802734375
1704790063540101000,4.03510107421875,-0.182342529296875,-1.1426544189453125,0.01177978515625
1704790063550077000,4.045076904296875,-0.1837615966796875,-1.15234375,0.00396728515625
1704790063560053000,4.055052978515625,-0.185577392578125,-1.146240234375,-0.013885498046875
1704790063570028000,4.065028076171875,-0.1875152587890625,-1.1409912109375,-0.0357666015625
1704790063580004000,4.075004150390625,-0.19256591796875,-1.1433563232421875,-0.03997802734375
1704790063589980000,4.08497998046875,-0.185272216796875,-1.1488037109375,-0.0461883544921875
1704790063599956000,4.0949560546875,-0.180694580078125,-1.165496826171875,-0.068878173828125
1704790063609932000,4.10493212890625,-0.1851959228515625,-1.182830810546875,-0.0924835205078125
1704790063619907800,4.114907958984375,-0.1826629638671875,-1.19500732421875,-0.1240386962890625
1704790063629884000,4.1248837890625,-0.1810302734375,-1.213165283203125,-0.139862060546875
1704790063639860000,4.13485986328125,-0.186126708984375,-1.224029541015625,-0.13067626953125
1704790063649836000,4.1448359375,-0.17529296875,-1.1972808837890625,-0.1134490966796875
1704790063659811000,4.15481103515625,-0.206878662109375,-1.229461669921875,-0.1081695556640625
1704790063669787000,4.164786865234375,-0.1930694580078125,-1.1925048828125,-0.127227783203125
1704790063679763000,4.174762939453125,-0.2063140869140625,-1.208160400390625,-0.11566162109375
1704790063689739000,4.184739013671875,-0.1889190673828125,-1.1978912353515625,-0.1254425048828125
1704790063699714800,4.19471484375,-0.1828155517578125,-1.1911773681640625,-0.1279144287109375
1704790063709691100,4.204691162109375,-0.1925506591796875,-1.1964263916015625,-0.1280364990234375
1704790063719667000,4.2146669921875,-0.1898651123046875,-1.187164306640625,-0.123077392578125
1704790063729642800,4.224642822265625,-0.183563232421875,-1.1596527099609375,-0.11383056640625
1704790063739619000,4.234619140625,-0.1894683837890625,-1.151458740234375,-0.1228790283203125
1704790063749595000,4.244594970703125,-0.196868896484375,-1.1532745361328125,-0.122833251953125
1704790063759570000,4.25456982421875,-0.2004547119140625,-1.1447906494140625,-0.11407470703125
1704790063769546000,4.2645458984375,-0.195098876953125,-1.1127166748046875,-0.1151580810546875
1704790063779522000,4.27452197265625,-0.195068359375,-1.085205078125,-0.1229400634765625
1704790063789497900,4.284497802734375,-0.191436767578125,-1.0843963623046875,-0.1201324462890625
1704790063799474000,4.294473876953125,-0.1841583251953125,-1.0908660888671875,-0.1178131103515625
1704790063809450000,4.304449951171875,-0.1776885986328125,-1.0857696533203125,-0.1241912841796875
1704790063819426000,4.314426025390625,-0.1726531982421875,-1.08074951171875,-0.1358184814453125
1704790063829401900,4.32440185546875,-0.1630859375,-1.080841064453125,-0.13238525390625
1704790063839378000,4.3343779296875,-0.1526031494140625,-1.0738525390625,-0.132659912109375
1704790063849353000,4.34435302734375,-0.1415863037109375,-1.0583038330078125,-0.1364593505859375
1704790063859329000,4.3543291015625,-0.1316070556640625,-1.041259765625,-0.1399078369140625
1704790063869304800,4.364304931640625,-0.1292572021484375,-1.032501220703125,-0.1438446044921875
1704790063879281200,4.37428125,-0.121307373046875,-1.025421142578125,-0.144439697265625
1704790063889257000,4.384257080078125,-0.1161956787109375,-1.0207977294921875,-0.1577911376953125
1704790063899232800,4.394232666015625,-0.1143798828125,-1.0111846923828125,-0.17144775390625
1704790063909209000,4.404208984375,-0.1122283935546875,-0.992523193359375,-0.1764068603515625
1704790063919185000,4.414184814453125,-0.113616943359375,-0.98974609375,-0.18389892578125
1704790063929161000,4.424160888671875,-0.1150360107421875,-0.9976806640625,-0.1861419677734375
1704790063939137000,4.434136962890625,-0.110748291015625,-0.995391845703125,-0.18212890625
1704790063949112000,4.444112060546875,-0.1072998046875,-0.9842376708984375,-0.1839447021484375
1704790063959087900,4.454087890625,-0.10955810546875,-0.982635498046875,-0.192047119140625
1704790063969064000,4.46406396484375,-0.1099700927734375,-0.9835357666015625,-0.1932830810546875
1704790063979040000,4.4740400390625,-0.108489990234375,-0.9846954345703125,-0.1937713623046875
1704790063989016000,4.48401611328125,-0.109222412109375,-0.9805145263671875,-0.194915771484375
1704790063998992000,4.493991943359375,-0.105743408203125,-0.9738311767578125,-0.1949615478515625
1704790064008968000,4.503968017578125,-0.1049652099609375,-0.9670867919921875,-0.2007293701171875
1704790064018944000,4.513944091796875,-0.1046142578125,-0.9630279541015625,-0.200927734375
1704790064028919800,4.523919921875,-0.1054534912109375,-0.9594879150390625,-0.2034759521484375
1704790064038895900,4.533895751953125,-0.1091766357421875,-0.955596923828125,-0.2086944580078125
1704790064048871200,4.54387109375,-0.1048431396484375,-0.958831787109375,-0.2070770263671875
1704790064058847000,4.553846923828125,-0.1046295166015625,-0.957183837890625,-0.211090087890625
1704790064068822800,4.56382275390625,-0.1060638427734375,-0.9558258056640625,-0.2164459228515625
1704790064078799000,4.573799072265625,-0.100006103515625,-0.9609832763671875,-0.2142791748046875
1704790064088775000,4.58377490234375,-0.098419189453125,-0.9671630859375,-0.2151031494140625
1704790064098750700,4.593750732421875,-0.09735107421875,-0.9694671630859375,-0.224395751953125
1704790064108727000,4.60372705078125,-0.0961456298828125,-0.9675140380859375,-0.2399749755859375
1704790064118702800,4.613702880859375,-0.0913848876953125,-0.9613189697265625,-0.2503814697265625
1704790064128679000,4.623678955078125,-0.0922698974609375,-0.963409423828125,-0.2509307861328125
1704790064138654000,4.633654052734375,-0.0948333740234375,-0.966827392578125,-0.2523040771484375
1704790064148630000,4.643630126953125,-0.1007232666015625,-0.9679412841796875,-0.253692626953125
1704790064158606000,4.653606201171875,-0.1030731201171875,-0.965057373046875,-0.2588653564453125
1704790064168582000,4.663581787109375,-0.1087646484375,-0.9671173095703125,-0.263092041015625
1704790064178558000,4.673557861328125,-0.1114959716796875,-0.96392822265625,-0.2676849365234375
1704790064188534000,4.683533935546875,-0.11358642578125,-0.9619598388671875,-0.2737579345703125
1704790064198509800,4.693509765625,-0.1129150390625,-0.962310791015625,-0.2751922607421875
1704790064208486000,4.70348583984375,-0.1124114990234375,-0.962982177734375,-0.2733306884765625
1704790064218462000,4.7134619140625,-0.1151123046875,-0.9643707275390625,-0.276641845703125
1704790064228438000,4.72343798828125,-0.1171722412109375,-0.96002197265625,-0.2837982177734375
1704790064238412800,4.733412841796875,-0.1197052001953125,-0.954010009765625,-0.2910003662109375
1704790064248389000,4.74338916015625,-0.12042236328125,-0.9444427490234375,-0.29388427734375
1704790064258365000,4.753364990234375,-0.125885009765625,-0.9434661865234375,-0.2950286865234375
1704790064268341000,4.763341064453125,-0.1287384033203125,-0.95159912109375,-0.297119140625
1704790064278317000,4.773317138671875,-0.12347412109375,-0.9552154541015625,-0.3045501708984375
1704790064288292400,4.783292236328125,-0.120513916015625,-0.9481658935546875,-0.3166656494140625
1704790064298268400,4.793268310546875,-0.1208038330078125,-0.9430084228515625,-0.3245391845703125
1704790064308244500,4.803244384765625,-0.1190032958984375,-0.94061279296875,-0.32769775390625
1704790064318220300,4.81322021484375,-0.1170806884765625,-0.943939208984375,-0.3319854736328125
1704790064328195300,4.8231953125,-0.1136474609375,-0.9521942138671875,-0.329132080078125
1704790064338171400,4.83317138671875,-0.10772705078125,-0.952606201171875,-0.3200225830078125
1704790064348147500,4.8431474609375,-0.104095458984375,-0.944122314453125,-0.3282012939453125
1704790064358123300,4.853123291015625,-0.10797119140625,-0.94219970703125,-0.3356781005859375
1704790064368099300,4.863099365234375,-0.1068878173828125,-0.942138671875,-0.3380889892578125
1704790064378075400,4.873075439453125,-0.1055450439453125,-0.9392547607421875,-0.341644287109375
1704790064388051500,4.883051513671875,-0.10540771484375,-0.9429168701171875,-0.3439788818359375
1704790064398027500,4.893027587890625,-0.1031951904296875,-0.9425201416015625,-0.338836669921875
1704790064408003300,4.90300341796875,-0.0978851318359375,-0.9330902099609375,-0.340484619140625
1704790064417979400,4.9129794921875,-0.09619140625,-0.9227752685546875,-0.340179443359375
1704790064427954400,4.922954345703125,-0.0913543701171875,-0.9147491455078125,-0.3399810791015625
1704790064437930200,4.93293017578125,-0.0879669189453125,-0.9019927978515625,-0.3399658203125
1704790064447906600,4.942906494140625,-0.086273193359375,-0.890045166015625,-0.339996337890625
1704790064457882400,4.95288232421875,-0.0873870849609375,-0.8902740478515625,-0.3428955078125
1704790064467858400,4.9628583984375,-0.0886077880859375,-0.8956298828125,-0.340850830078125
1704790064477834500,4.97283447265625,-0.085113525390625,-0.907135009765625,-0.3306121826171875
1704790064487810300,4.982810302734375,-0.0867919921875,-0.916839599609375,-0.323394775390625
1704790064497786600,4.99278662109375,-0.090301513671875,-0.9267730712890625,-0.313140869140625
1704790064507762400,5.002762451171875,-0.0908660888671875,-0.9450225830078125,-0.2976226806640625
1704790064517738200,5.01273828125,-0.0958251953125,-0.9616241455078125,-0.2790985107421875
1704790064527713300,5.02271337890625,-0.1068267822265625,-0.9793701171875,-0.2583770751953125
1704790064537689300,5.032689453125,-0.111480712890625,-0.9890899658203125,-0.2299957275390625
1704790064547665400,5.04266552734375,-0.1194305419921875,-0.9869232177734375,-0.20166015625
1704790064557641500,5.052641357421875,-0.12017822265625,-0.9884185791015625,-0.1721649169921875
1704790064567617500,5.062617431640625,-0.128021240234375,-1.0028076171875,-0.140350341796875
1704790064577593300,5.07259326171875,-0.128082275390625,-1.007965087890625,-0.1222991943359375
1704790064587569400,5.0825693359375,-0.1395263671875,-1.0052947998046875,-0.1085205078125
1704790064597545500,5.09254541015625,-0.1462860107421875,-1.0049285888671875,-0.086700439453125
1704790064607521300,5.102521240234375,-0.1498870849609375,-0.9997406005859375,-0.0544586181640625
1704790064617496600,5.11249658203125,-0.1552276611328125,-0.9975433349609375,-0.0267486572265625
1704790064627472400,5.122472412109375,-0.1586456298828125,-0.9952239990234375,-0.003936767578125
1704790064637448200,5.1324482421875,-0.1693115234375,-0.98883056640625,0.01556396484375
1704790064647424500,5.142424560546875,-0.179931640625,-1.00274658203125,0.027008056640625
1704790064657400300,5.152400390625,-0.1916046142578125,-1.02978515625,0.0502471923828125
1704790064667376600,5.162376708984375,-0.203338623046875,-1.0513153076171875,0.073883056640625
1704790064677352400,5.1723525390625,-0.20648193359375,-1.0642852783203125,0.09283447265625
1704790064687328300,5.182328369140625,-0.2153167724609375,-1.0800323486328125,0.1085357666015625
1704790064697304600,5.1923046875,-0.2147216796875,-1.0953216552734375,0.121124267578125
1704790064707279400,5.202279296875,-0.221771240234375,-1.1071929931640625,0.1282806396484375
1704790064717255400,5.21225537109375,-0.226409912109375,-1.10443115234375,0.132232666015625
1704790064727231500,5.2222314453125,-0.2285003662109375,-1.1028289794921875,0.1376953125
1704790064737207300,5.232207275390625,-0.2310943603515625,-1.1195831298828125,0.1407623291015625
1704790064747183400,5.242183349609375,-0.230316162109375,-1.1387786865234375,0.1410980224609375
1704790064757159400,5.252159423828125,-0.2283935546875,-1.15533447265625,0.1363983154296875
1704790064767135500,5.262135498046875,-0.22723388671875,-1.16082763671875,0.1268157958984375
1704790064777111300,5.272111328125,-0.23095703125,-1.1665191650390625,0.115447998046875
1704790064787087400,5.28208740234375,-0.236541748046875,-1.169586181640625,0.11578369140625
1704790064797063400,5.2920634765625,-0.238433837890625,-1.1670989990234375,0.121856689453125
1704790064807038200,5.3020380859375,-0.2343902587890625,-1.146575927734375,0.1287994384765625
1704790064817014500,5.3120146484375,-0.2291412353515625,-1.118408203125,0.13525390625
1704790064826990300,5.321990234375,-0.226043701171875,-1.0865020751953125,0.142364501953125
1704790064836966400,5.33196630859375,-0.2200775146484375,-1.061065673828125,0.149505615234375
1704790064846942500,5.3419423828125,-0.2188262939453125,-1.054595947265625,0.1511993408203125
1704790064856918300,5.351918212890625,-0.21673583984375,-1.05126953125,0.1511383056640625
1704790064866894600,5.36189453125,-0.2119903564453125,-1.04852294921875,0.1493988037109375
1704790064876870400,5.371870361328125,-0.2112884521484375,-1.0570831298828125,0.142913818359375
1704790064886846200,5.38184619140625,-0.2069549560546875,-1.061126708984375,0.1326446533203125
1704790064896821500,5.391821533203125,-0.20135498046875,-1.0666656494140625,0.1205291748046875
1704790064906797300,5.40179736328125,-0.198577880859375,-1.071868896484375,0.1091461181640625
1704790064916773400,5.4117734375,-0.1983184814453125,-1.0715484619140625,0.0983428955078125
1704790064926749400,5.42174951171875,-0.195343017578125,-1.07012939453125,0.0867919921875
1704790064936725500,5.4317255859375,-0.191009521484375,-1.0732421875,0.0771636962890625
1704790064946701300,5.441701416015625,-0.1901702880859375,-1.0844879150390625,0.0694122314453125
1704790064956677400,5.451677490234375,-0.1906890869140625,-1.0919647216796875,0.053253173828125
1704790064966653400,5.4616533203125,-0.187408447265625,-1.084320068359375,0.0341644287109375
1704790064976629500,5.47162939453125,-0.1840057373046875,-1.0741119384765625,0.01971435546875
1704790064986605300,5.481605224609375,-0.180450439453125,-1.0697174072265625,0.004150390625
1704790064996580400,5.491580322265625,-0.179168701171875,-1.0642852783203125,-0.0111846923828125
1704790065006556400,5.501556396484375,-0.1765594482421875,-1.0572357177734375,-0.0290069580078125
1704790065016532500,5.511532470703125,-0.1692962646484375,-1.0483551025390625,-0.04400634765625
1704790065026508300,5.52150830078125,-0.164459228515625,-1.0407867431640625,-0.0587615966796875
1704790065036484400,5.531484375,-0.1572723388671875,-1.032379150390625,-0.071807861328125
1704790065046460400,5.54146044921875,-0.1515045166015625,-1.027862548828125,-0.0881500244140625
1704790065056436200,5.551436279296875,-0.1510467529296875,-1.02264404296875,-0.1047821044921875
1704790065066412500,5.56141259765625,-0.1496429443359375,-1.0095367431640625,-0.109527587890625
1704790065076388400,5.571388427734375,-0.1410675048828125,-0.9906158447265625,-0.1068572998046875
1704790065086364400,5.581364501953125,-0.1346893310546875,-0.9715728759765625,-0.118011474609375
1704790065096339500,5.59133935546875,-0.1316680908203125,-0.951751708984375,-0.1288909912109375
1704790065106315300,5.601315185546875,-0.1266326904296875,-0.935455322265625,-0.1383209228515625
1704790065116291600,5.61129150390625,-0.120330810546875,-0.929229736328125,-0.151763916015625
1704790065126267400,5.621267333984375,-0.114837646484375,-0.928314208984375,-0.165313720703125
1704790065136243500,5.631243408203125,-0.115997314453125,-0.9268646240234375,-0.174072265625
1704790065146219500,5.641219482421875,-0.11126708984375,-0.933319091796875,-0.188690185546875
1704790065156195300,5.6511953125,-0.1094818115234375,-0.9418792724609375,-0.1981353759765625
1704790065166171400,5.66117138671875,-0.1097564697265625,-0.949615478515625,-0.207733154296875
1704790065176147500,5.6711474609375,-0.110626220703125,-0.95587158203125,-0.21832275390625
1704790065186123300,5.681123291015625,-0.099029541015625,-0.9580230712890625,-0.2242584228515625
1704790065196098300,5.691098388671875,-0.088287353515625,-0.956390380859375,-0.21575927734375
1704790065206074400,5.701074462890625,-0.081573486328125,-0.94952392578125,-0.2161407470703125
1704790065216050400,5.711050537109375,-0.078826904296875,-0.9457550048828125,-0.2194976806640625
1704790065226026200,5.721026123046875,-0.074188232421875,-0.9388427734375,-0.2198486328125
1704790065236002600,5.73100244140625,-0.0729522705078125,-0.9395599365234375,-0.2210845947265625
1704790065245978400,5.740978271484375,-0.0753021240234375,-0.9412994384765625,-0.2196502685546875
1704790065255954400,5.750954345703125,-0.074371337890625,-0.9425048828125,-0.2155303955078125
1704790065265930500,5.760930419921875,-0.077392578125,-0.94451904296875,-0.2079925537109375
1704790065275906300,5.77090625,-0.080047607421875,-0.936248779296875,-0.1931610107421875
1704790065285882000,5.780882080078125,-0.07843017578125,-0.9188995361328125,-0.182891845703125
1704790065295858000,5.79085791015625,-0.078369140625,-0.89776611328125,-0.17169189453125
1704790065305833700,5.800833740234375,-0.07818603515625,-0.875762939453125,-0.1628265380859375
1704790065315810000,5.81081005859375,-0.0822906494140625,-0.860443115234375,-0.1588134765625
1704790065325785900,5.820785888671875,-0.0850677490234375,-0.857391357421875,-0.1557464599609375
1704790065335762000,5.830761962890625,-0.0903472900390625,-0.8633270263671875,-0.1556854248046875
1704790065345738000,5.840738037109375,-0.096832275390625,-0.875457763671875,-0.162384033203125
1704790065355713800,5.8507138671875,-0.10302734375,-0.8956298828125,-0.1681976318359375
1704790065365690000,5.860690185546875,-0.108856201171875,-0.922332763671875,-0.1746063232421875
1704790065375666000,5.870666015625,-0.11407470703125,-0.939422607421875,-0.183837890625
1704790065385641000,5.880640869140625,-0.1163787841796875,-0.9655609130859375,-0.1933135986328125
1704790065395617000,5.890616943359375,-0.1158447265625,-0.998260498046875,-0.2018890380859375
1704790065405592800,5.9005927734375,-0.116485595703125,-1.0247802734375,-0.210601806640625
1704790065415569000,5.91056884765625,-0.121612548828125,-1.045196533203125,-0.21881103515625
1704790065425545000,5.920544921875,-0.1249847412109375,-1.0622406005859375,-0.22662353515625
1704790065435520800,5.930520751953125,-0.12615966796875,-1.0767669677734375,-0.2357635498046875
1704790065445496800,5.940496826171875,-0.1277923583984375,-1.082427978515625,-0.237152099609375
1704790065455473000,5.950472900390625,-0.130889892578125,-1.08050537109375,-0.233734130859375
1704790065465449000,5.960448974609375,-0.13128662109375,-1.070037841796875,-0.224578857421875
1704790065475425000,5.970425048828125,-0.1345977783203125,-1.0560760498046875,-0.2172088623046875
1704790065485400000,5.980400146484375,-0.136962890625,-1.0321197509765625,-0.2114410400390625
1704790065495376000,5.9903759765625,-0.1381683349609375,-1.0057373046875,-0.20159912109375
1704790065505352000,6.00035205078125,-0.139617919921875,-0.985870361328125,-0.1946258544921875
1704790065515328000,6.010327880859375,-0.1430206298828125,-0.969146728515625,-0.1884307861328125
1704790065525303800,6.0203037109375,-0.1434783935546875,-0.9618682861328125,-0.1857147216796875
1704790065535279900,6.03027978515625,-0.14642333984375,-0.9639129638671875,-0.18255615234375
1704790065545256000,6.040255859375,-0.1451263427734375,-0.9688720703125,-0.17626953125
1704790065555231700,6.050231689453125,-0.14654541015625,-0.97454833984375,-0.1694793701171875
1704790065565208000,6.0602080078125,-0.14300537109375,-0.983123779296875,-0.1670684814453125
1704790065575184000,6.070183837890625,-0.138641357421875,-0.993255615234375,-0.1678314208984375
1704790065585159000,6.080158935546875,-0.13232421875,-1.005157470703125,-0.1665802001953125
1704790065595135000,6.090135009765625,-0.1296539306640625,-1.015167236328125,-0.1651611328125
1704790065605110800,6.10011083984375,-0.1290130615234375,-1.022735595703125,-0.1650238037109375
1704790065615086800,6.1100869140625,-0.13287353515625,-1.029205322265625,-0.1625518798828125
1704790065625063000,6.12006298828125,-0.1358795166015625,-1.033447265625,-0.1601104736328125
1704790065635039000,6.1300390625,-0.1369476318359375,-1.0298309326171875,-0.1569366455078125
1704790065645015000,6.14001513671875,-0.13970947265625,-1.0302886962890625,-0.1547393798828125
1704790065654990800,6.149990966796875,-0.14215087890625,-1.0314178466796875,-0.1507720947265625
1704790065664967000,6.159966796875,-0.139312744140625,-1.0289764404296875,-0.1498565673828125
1704790065674942000,6.16994189453125,-0.1408538818359375,-1.03314208984375,-0.147369384765625
1704790065684918000,6.17991796875,-0.1346588134765625,-1.034698486328125,-0.135040283203125
1704790065694893800,6.189893798828125,-0.131317138671875,-1.032867431640625,-0.1257781982421875
1704790065704870000,6.199869873046875,-0.13128662109375,-1.0326080322265625,-0.121429443359375
1704790065714846000,6.209845947265625,-0.1267242431640625,-1.030059814453125,-0.111785888671875
1704790065724821800,6.21982177734375,-0.1234283447265625,-1.02716064453125,-0.1090240478515625
1704790065734798000,6.229798095703125,-0.1202239990234375,-1.0306854248046875,-0.1078948974609375
1704790065744774000,6.23977392578125,-0.11712646484375,-1.035980224609375,-0.0980987548828125
1704790065754750000,6.24975,-0.1135711669921875,-1.0422821044921875,-0.091705322265625
1704790065764726000,6.25972607421875,-0.10931396484375,-1.0479278564453125,-0.0863189697265625
1704790065774700800,6.26970068359375,-0.106842041015625,-1.0572662353515625,-0.0782470703125
1704790065784676900,6.2796767578125,-0.104766845703125,-1.067230224609375,-0.0753326416015625
1704790065794653000,6.28965283203125,-0.100311279296875,-1.06976318359375,-0.070892333984375
1704790065804628700,6.299628662109375,-0.0959930419921875,-1.068328857421875,-0.0614013671875
1704790065814605000,6.30960498046875,-0.095794677734375,-1.07135009765625,-0.0582122802734375
1704790065824580900,6.319580810546875,-0.09759521484375,-1.0779571533203125,-0.0516815185546875
1704790065834557000,6.329556884765625,-0.096893310546875,-1.083740234375,-0.0462493896484375
1704790065844533000,6.339532958984375,-0.098876953125,-1.08905029296875,-0.043792724609375
1704790065854508800,6.3495087890625,-0.100311279296875,-1.09088134765625,-0.044403076171875
1704790065864484900,6.35948486328125,-0.1052703857421875,-1.08953857421875,-0.0461273193359375
1704790065874460000,6.3694599609375,-0.1094512939453125,-1.08453369140625,-0.0433197021484375
1704790065884436000,6.37943603515625,-0.117095947265625,-1.086090087890625,-0.0502166748046875
1704790065894411800,6.389411865234375,-0.127410888671875,-1.1055145263671875,-0.063568115234375
1704790065904387800,6.399387939453125,-0.139617919921875,-1.143798828125,-0.0771026611328125
1704790065914364000,6.409364013671875,-0.1466827392578125,-1.1836090087890625,-0.087982177734375
1704790065924340000,6.419340087890625,-0.1501617431640625,-1.219024658203125,-0.0940399169921875
1704790065934316000,6.42931591796875,-0.153289794921875,-1.24365234375,-0.092620849609375
1704790065944291800,6.439291748046875,-0.159332275390625,-1.2540435791015625,-0.0955810546875
1704790065954268000,6.449267822265625,-0.1656951904296875,-1.2496185302734375,-0.101806640625
1704790065964244000,6.459243896484375,-0.1717987060546875,-1.23651123046875,-0.099761962890625
1704790065974218800,6.46921875,-0.174713134765625,-1.2161865234375,-0.08819580078125
1704790065984195000,6.479195068359375,-0.1732330322265625,-1.1859283447265625,-0.0770263671875
1704790065994171000,6.4891708984375,-0.1718292236328125,-1.14715576171875,-0.0642242431640625
1704790066004146700,6.499146728515625,-0.16021728515625,-1.09735107421875,-0.051177978515625
1704790066014123000,6.509123046875,-0.1533966064453125,-1.0529327392578125,-0.04443359375
1704790066024098800,6.519098876953125,-0.14910888671875,-1.0121002197265625,-0.0421295166015625
1704790066034075100,6.5290751953125,-0.14862060546875,-0.9804229736328125,-0.0388641357421875
1704790066044051000,6.539051025390625,-0.1522369384765625,-0.9729461669921875,-0.0463409423828125
1704790066054026800,6.54902685546875,-0.158660888671875,-0.982208251953125,-0.06134033203125
1704790066064003000,6.559003173828125,-0.1681060791015625,-1.0054473876953125,-0.0765228271484375
1704790066073977900,6.568977783203125,-0.1761627197265625,-1.039276123046875,-0.0952606201171875
1704790066083954000,6.578953857421875,-0.18829345703125,-1.0714874267578125,-0.12042236328125
1704790066093930000,6.588929931640625,-0.205657958984375,-1.102508544921875,-0.1499176025390625
1704790066103905800,6.59890576171875,-0.2215728759765625,-1.133056640625,-0.1791229248046875
1704790066113881900,6.6088818359375,-0.232391357421875,-1.1556396484375,-0.20001220703125
1704790066123858000,6.61885791015625,-0.24090576171875,-1.1761474609375,-0.21649169921875
1704790066133834000,6.628833984375,-0.24578857421875,-1.186187744140625,-0.230438232421875
1704790066143809800,6.638809814453125,-0.2495269775390625,-1.196441650390625,-0.2465667724609375
1704790066153785900,6.648785888671875,-0.2546539306640625,-1.2150115966796875,-0.26641845703125
1704790066163762000,6.658761962890625,-0.2568817138671875,-1.232025146484375,-0.2791290283203125
1704790066173736700,6.66873681640625,-0.255279541015625,-1.2474212646484375,-0.2908935546875
1704790066183713000,6.678713134765625,-0.25006103515625,-1.25531005859375,-0.3026580810546875
1704790066193688800,6.688688720703125,-0.244293212890625,-1.253631591796875,-0.3089599609375
1704790066203665000,6.698664794921875,-0.2374420166015625,-1.254150390625,-0.3141632080078125
1704790066213641000,6.708640869140625,-0.228546142578125,-1.241302490234375,-0.3105621337890625
1704790066223616800,6.71861669921875,-0.2230377197265625,-1.21478271484375,-0.30224609375
1704790066233593000,6.728593017578125,-0.2213897705078125,-1.1939239501953125,-0.3079376220703125
1704790066243569000,6.73856884765625,-0.222900390625,-1.17718505859375,-0.2998199462890625
1704790066253544700,6.748544677734375,-0.22723388671875,-1.1892242431640625,-0.3169708251953125
1704790066263521000,6.75852099609375,-0.2230377197265625,-1.1842193603515625,-0.316619873046875
1704790066273495800,6.768495849609375,-0.2264251708984375,-1.173828125,-0.311676025390625
1704790066283472400,6.778472412109375,-0.2213287353515625,-1.17230224609375,-0.3235321044921875
1704790066293448200,6.7884482421875,-0.2142333984375,-1.167999267578125,-0.31976318359375
1704790066303424000,6.798424072265625,-0.2095794677734375,-1.161041259765625,-0.321441650390625
1704790066313400300,6.808400390625,-0.20306396484375,-1.1443328857421875,-0.322784423828125
1704790066323376000,6.818376220703125,-0.19744873046875,-1.12042236328125,-0.3254547119140625
1704790066333352200,6.828352294921875,-0.1917724609375,-1.0926513671875,-0.320953369140625
1704790066343328300,6.838328369140625,-0.182403564453125,-1.058685302734375,-0.3094940185546875
1704790066353304000,6.848303955078125,-0.1783599853515625,-1.0212249755859375,-0.3016357421875
1704790066363279000,6.858279052734375,-0.1748046875,-0.98846435546875,-0.29669189453125
1704790066373255200,6.868255126953125,-0.173370361328125,-0.96514892578125,-0.2912445068359375
1704790066383231200,6.878231201171875,-0.169036865234375,-0.9415283203125,-0.281494140625
1704790066393207300,6.888207275390625,-0.1646575927734375,-0.9178314208984375,-0.272735595703125
1704790066403183000,6.89818310546875,-0.157440185546875,-0.89581298828125,-0.2650909423828125
1704790066413159200,6.9081591796875,-0.1481170654296875,-0.873626708984375,-0.259002685546875
1704790066423135200,6.91813525390625,-0.1473846435546875,-0.854461669921875,-0.2540740966796875
1704790066433111300,6.928111328125,-0.145111083984375,-0.842681884765625,-0.2487030029296875
1704790066443087000,6.938087158203125,-0.1395416259765625,-0.8237762451171875,-0.2416229248046875
1704790066453063200,6.948063232421875,-0.139251708984375,-0.81494140625,-0.2418212890625
1704790066463038200,6.9580380859375,-0.1407318115234375,-0.810272216796875,-0.2413787841796875
1704790066473014000,6.968013916015625,-0.138885498046875,-0.8097991943359375,-0.240631103515625
1704790066482990300,6.977990234375,-0.1390228271484375,-0.8131103515625,-0.2475433349609375
1704790066492966100,6.987966064453125,-0.138092041015625,-0.818878173828125,-0.2478790283203125
1704790066502942200,6.997942138671875,-0.1387786865234375,-0.8319854736328125,-0.248870849609375
1704790066512918300,7.007918212890625,-0.138427734375,-0.844940185546875,-0.24896240234375
1704790066522894000,7.01789404296875,-0.137451171875,-0.84765625,-0.24609375
1704790066532870400,7.027870361328125,-0.1373138427734375,-0.849517822265625,-0.2431488037109375
1704790066542846200,7.03784619140625,-0.1381683349609375,-0.8549041748046875,-0.24102783203125
1704790066552822000,7.047822021484375,-0.1422119140625,-0.8585357666015625,-0.23736572265625
1704790066562797300,7.05779736328125,-0.1428070068359375,-0.85693359375,-0.2291107177734375
1704790066572773000,7.067773193359375,-0.141876220703125,-0.85955810546875,-0.2255096435546875
1704790066582749200,7.077749267578125,-0.1398162841796875,-0.8703155517578125,-0.2223663330078125
1704790066592725200,7.087725341796875,-0.1332855224609375,-0.895111083984375,-0.220977783203125
1704790066602701300,7.097701416015625,-0.125152587890625,-0.91668701171875,-0.21795654296875
1704790066612677000,7.107677001953125,-0.1142120361328125,-0.936370849609375,-0.21392822265625
1704790066622653200,7.117653076171875,-0.109130859375,-0.9595947265625,-0.2205810546875
1704790066632629200,7.127629150390625,-0.1050262451171875,-0.994720458984375,-0.230224609375
1704790066642605300,7.137605224609375,-0.1051788330078125,-1.041748046875,-0.2355804443359375
1704790066652581000,7.1475810546875,-0.104278564453125,-1.079742431640625,-0.2375640869140625
1704790066662556200,7.15755615234375,-0.110260009765625,-1.109771728515625,-0.2425079345703125
1704790066672532000,7.167531982421875,-0.112060546875,-1.1264801025390625,-0.237030029296875
1704790066682508300,7.17750830078125,-0.115753173828125,-1.130279541015625,-0.2268829345703125
1704790066692484000,7.187484130859375,-0.122802734375,-1.1326141357421875,-0.2201385498046875
1704790066702460400,7.19746044921875,-0.1291961669921875,-1.1202850341796875,-0.212921142578125
1704790066712436200,7.207436279296875,-0.1344757080078125,-1.0988922119140625,-0.2055816650390625
1704790066722412000,7.217412109375,-0.1380157470703125,-1.0712738037109375,-0.1894073486328125
1704790066732388400,7.227388427734375,-0.137939453125,-1.0402374267578125,-0.170623779296875
1704790066742364200,7.2373642578125,-0.135223388671875,-1.0030670166015625,-0.1544036865234375
1704790066752339200,7.247339111328125,-0.136077880859375,-0.97906494140625,-0.1421356201171875
1704790066762315300,7.257315185546875,-0.134796142578125,-0.972869873046875,-0.138092041015625
1704790066772291000,7.267291015625,-0.1359405517578125,-0.9861907958984375,-0.1434783935546875
1704790066782267100,7.27726708984375,-0.14093017578125,-1.020660400390625,-0.157562255859375
1704790066792243200,7.2872431640625,-0.1378936767578125,-1.0549163818359375,-0.164703369140625
1704790066802219300,7.29721923828125,-0.140167236328125,-1.1008758544921875,-0.1739654541015625
1704790066812195300,7.3071953125,-0.1420745849609375,-1.14385986328125,-0.1845855712890625
1704790066822171100,7.317171142578125,-0.144622802734375,-1.180755615234375,-0.1923065185546875
1704790066832147200,7.327147216796875,-0.1449432373046875,-1.2036285400390625,-0.1901702880859375
1704790066842123300,7.337123291015625,-0.1430816650390625,-1.2069854736328125,-0.1846466064453125
1704790066852098300,7.347098388671875,-0.14483642578125,-1.202850341796875,-0.1825714111328125
1704790066862074000,7.35707421875,-0.1460418701171875,-1.1969451904296875,-0.1719512939453125
1704790066872050200,7.36705029296875,-0.15093994140625,-1.1816253662109375,-0.1606903076171875
1704790066882026200,7.377026123046875,-0.14886474609375,-1.1555023193359375,-0.15338134765625
1704790066892002000,7.387001953125,-0.148345947265625,-1.126953125,-0.147735595703125
1704790066901978400,7.396978271484375,-0.1471710205078125,-1.10406494140625,-0.13519287109375
1704790066911954200,7.4069541015625,-0.1424407958984375,-1.081878662109375,-0.123046875
1704790066921930200,7.41693017578125,-0.139495849609375,-1.06671142578125,-0.1166839599609375
1704790066931906300,7.42690625,-0.1345062255859375,-1.0506744384765625,-0.1076507568359375
1704790066941882000,7.436882080078125,-0.1298828125,-1.0371551513671875,-0.1014404296875
1704790066951857200,7.446857177734375,-0.127777099609375,-1.0345611572265625,-0.1011810302734375
1704790066961833200,7.456833251953125,-0.1289520263671875,-1.0391082763671875,-0.10626220703125
1704790066971809000,7.46680908203125,-0.1313934326171875,-1.0496673583984375,-0.1044769287109375
1704790066981785300,7.476785400390625,-0.1298675537109375,-1.0596923828125,-0.09942626953125
1704790066991761200,7.48676123046875,-0.1313934326171875,-1.0689697265625,-0.10064697265625
1704790067001737200,7.4967373046875,-0.133270263671875,-1.077606201171875,-0.10308837890625
1704790067011713300,7.50671337890625,-0.132232666015625,-1.0817718505859375,-0.10064697265625
1704790067021689000,7.516689208984375,-0.1341094970703125,-1.09161376953125,-0.0965423583984375
1704790067031665200,7.5266650390625,-0.133819580078125,-1.0987396240234375,-0.087493896484375
1704790067041641200,7.53664111328125,-0.128173828125,-1.0986175537109375,-0.0762786865234375
1704790067051616300,7.5466162109375,-0.128082275390625,-1.090301513671875,-0.0670623779296875
1704790067061592000,7.556592041015625,-0.1297149658203125,-1.0717010498046875,-0.0625762939453125
1704790067071568100,7.566568115234375,-0.13104248046875,-1.05157470703125,-0.055206298828125
1704790067081544200,7.576544189453125,-0.1271209716796875,-1.0309295654296875,-0.043487548828125
1704790067091520300,7.586520263671875,-0.1277008056640625,-1.0093841552734375,-0.037567138671875
1704790067101496300,7.596496337890625,-0.121307373046875,-0.9877166748046875,-0.0330963134765625
1704790067111472000,7.60647216796875,-0.1214447021484375,-0.9708709716796875,-0.0264129638671875
1704790067121448200,7.6164482421875,-0.11993408203125,-0.95819091796875,-0.021148681640625
1704790067131424300,7.62642431640625,-0.1170654296875,-0.9485015869140625,-0.01641845703125
1704790067141400000,7.636400146484375,-0.113433837890625,-0.94171142578125,-0.0097503662109375
1704790067151375400,7.646375244140625,-0.1121673583984375,-0.9409332275390625,-0.0076904296875
1704790067161351200,7.65635107421875,-0.1123046875,-0.941802978515625,-0.0088653564453125
1704790067171327200,7.6663271484375,-0.111785888671875,-0.9474945068359375,-0.01116943359375
1704790067181303300,7.67630322265625,-0.1155548095703125,-0.9628753662109375,-0.01031494140625
1704790067191279000,7.686279052734375,-0.1168212890625,-0.96990966796875,-0.0079498291015625
1704790067201255200,7.696255126953125,-0.117584228515625,-0.9795989990234375,-0.0111236572265625
1704790067211231200,7.706231201171875,-0.120269775390625,-0.9958953857421875,-0.0157623291015625
1704790067221207000,7.71620703125,-0.1208038330078125,-1.01263427734375,-0.020416259765625
1704790067231183400,7.726183349609375,-0.120880126953125,-1.0260772705078125,-0.02423095703125
1704790067241159200,7.7361591796875,-0.1243438720703125,-1.0426483154296875,-0.029205322265625
1704790067251134200,7.74613427734375,-0.1295928955078125,-1.0556640625,-0.03167724609375
1704790067261110300,7.7561103515625,-0.138946533203125,-1.0649261474609375,-0.0386199951171875
1704790067271086300,7.76608642578125,-0.147064208984375,-1.0641937255859375,-0.04449462890625
1704790067281062100,7.776062255859375,-0.1569671630859375,-1.059783935546875,-0.0490875244140625
1704790067291038000,7.786037841796875,-0.16656494140625,-1.0507965087890625,-0.05615234375
1704790067301014000,7.796013916015625,-0.1772308349609375,-1.0525054931640625,-0.06658935546875
1704790067310990000,7.805989990234375,-0.188629150390625,-1.0678863525390625,-0.07977294921875
1704790067320966000,7.8159658203125,-0.1974334716796875,-1.0924530029296875,-0.0961456298828125
1704790067330942000,7.82594189453125,-0.204864501953125,-1.134002685546875,-0.120452880859375
1704790067340918000,7.83591796875,-0.2092132568359375,-1.186126708984375,-0.1383209228515625
1704790067350893000,7.84589306640625,-0.210113525390625,-1.2346649169921875,-0.150177001953125
1704790067360868900,7.855868896484375,-0.2099761962890625,-1.271942138671875,-0.1556243896484375
1704790067370845200,7.86584521484375,-0.20782470703125,-1.2892608642578125,-0.160736083984375
1704790067380821000,7.875821044921875,-0.2101287841796875,-1.292388916015625,-0.171875
1704790067390797000,7.885797119140625,-0.2116241455078125,-1.28753662109375,-0.1807098388671875
1704790067400773000,7.895773193359375,-0.206817626953125,-1.2751617431640625,-0.1744232177734375
1704790067410749000,7.9057490234375,-0.2022247314453125,-1.2493133544921875,-0.158416748046875
1704790067420725000,7.91572509765625,-0.1953887939453125,-1.205780029296875,-0.141387939453125
1704790067430701000,7.925701171875,-0.1875457763671875,-1.150146484375,-0.1216583251953125
1704790067440676900,7.9356767578125,-0.179656982421875,-1.1003265380859375,-0.11578369140625
1704790067450652200,7.945652099609375,-0.1751556396484375,-1.0672760009765625,-0.11627197265625
1704790067460628000,7.9556279296875,-0.17626953125,-1.052825927734375,-0.1204986572265625
1704790067470604000,7.96560400390625,-0.1817779541015625,-1.0608062744140625,-0.1305694580078125
1704790067480580000,7.975580078125,-0.189910888671875,-1.09710693359375,-0.1470794677734375
1704790067490556000,7.985555908203125,-0.1993408203125,-1.1510009765625,-0.167022705078125
1704790067500532000,7.995531982421875,-0.211639404296875,-1.213287353515625,-0.1923828125
1704790067510508000,8.005508056640625,-0.223175048828125,-1.27099609375,-0.2180023193359375
1704790067520484000,8.015484130859376,-0.2369232177734375,-1.312652587890625,-0.239227294921875
1704790067530460200,8.025460205078126,-0.251983642578125,-1.342071533203125,-0.262115478515625
1704790067540436000,8.03543603515625,-0.260528564453125,-1.35552978515625,-0.27545166015625
1704790067550411000,8.045410888671874,-0.2690887451171875,-1.3538360595703125,-0.2865753173828125
1704790067560387000,8.055386962890625,-0.272735595703125,-1.34600830078125,-0.298187255859375
1704790067570363100,8.065363037109375,-0.27130126953125,-1.33392333984375,-0.2994537353515625
1704790067580339000,8.0753388671875,-0.2695159912109375,-1.3284149169921875,-0.302642822265625
1704790067590315000,8.08531494140625,-0.26751708984375,-1.3216705322265625,-0.3076171875
1704790067600291000,8.095291015625,-0.2634124755859375,-1.3062591552734375,-0.3053131103515625
1704790067610267000,8.105266845703126,-0.2545318603515625,-1.2847137451171875,-0.305511474609375
1704790067620243200,8.1152431640625,-0.2465057373046875,-1.2594146728515625,-0.301361083984375
1704790067630219000,8.125218994140624,-0.240325927734375,-1.2347259521484375,-0.300994873046875
1704790067640195000,8.135195068359375,-0.238189697265625,-1.2117156982421875,-0.29522705078125
1704790067650170000,8.145170166015625,-0.23358154296875,-1.18316650390625,-0.2906036376953125
1704790067660146000,8.15514599609375,-0.226226806640625,-1.1531524658203125,-0.287567138671875
1704790067670122200,8.165122314453125,-0.21820068359375,-1.1256103515625,-0.2824859619140625
1704790067680098000,8.17509814453125,-0.2130126953125,-1.10675048828125,-0.2827606201171875
1704790067690073900,8.185073974609375,-0.20672607421875,-1.094818115234375,-0.282562255859375
1704790067700050200,8.19505029296875,-0.202606201171875,-1.0763092041015625,-0.2835235595703125
1704790067710026000,8.20502587890625,-0.1990203857421875,-1.0544586181640625,-0.2851409912109375
1704790067720002000,8.215001953125,-0.1984405517578125,-1.030487060546875,-0.283905029296875
1704790067729978000,8.22497802734375,-0.1942596435546875,-1.00775146484375,-0.278106689453125
1704790067739954000,8.234953857421875,-0.1917877197265625,-0.978912353515625,-0.2706756591796875
1704790067749929000,8.244928955078125,-0.187957763671875,-0.9526519775390625,-0.2680816650390625
1704790067759905000,8.254905029296875,-0.1806640625,-0.92401123046875,-0.2562255859375
1704790067769881000,8.264881103515625,-0.1709747314453125,-0.89617919921875,-0.2446441650390625
1704790067779857000,8.27485693359375,-0.1625213623046875,-0.8695068359375,-0.240814208984375
1704790067789833000,8.2848330078125,-0.15374755859375,-0.84649658203125,-0.2379608154296875
1704790067799809000,8.29480908203125,-0.151123046875,-0.8264923095703125,-0.235198974609375
1704790067809785000,8.30478515625,-0.1444091796875,-0.8066864013671875,-0.23272705078125
1704790067819761200,8.31476123046875,-0.1384735107421875,-0.7909088134765625,-0.22674560546875
1704790067829737000,8.324737060546875,-0.13616943359375,-0.7785491943359375,-0.2231903076171875
1704790067839713000,8.334713134765625,-0.130615234375,-0.7639617919921875,-0.2166748046875
1704790067849688000,8.34468798828125,-0.126800537109375,-0.744384765625,-0.212127685546875
1704790067859664000,8.354663818359375,-0.1245880126953125,-0.73321533203125,-0.2093505859375
1704790067869640200,8.36464013671875,-0.1200714111328125,-0.7222747802734375,-0.2068023681640625
1704790067879616000,8.374615966796876,-0.1166229248046875,-0.715850830078125,-0.2107391357421875
1704790067889591800,8.384591796875,-0.1176605224609375,-0.7239532470703125,-0.21820068359375
1704790067899568000,8.394568115234375,-0.1164703369140625,-0.74359130859375,-0.222869873046875
1704790067909544000,8.4045439453125,-0.1179046630859375,-0.7673187255859375,-0.226104736328125
1704790067919520300,8.414520263671875,-0.1201171875,-0.79010009765625,-0.2351531982421875
1704790067929496000,8.42449609375,-0.125457763671875,-0.8109283447265625,-0.24481201171875
1704790067939472000,8.434471923828125,-0.1291656494140625,-0.8388519287109375,-0.2485504150390625
1704790067949447000,8.444447021484375,-0.13092041015625,-0.8634033203125,-0.2423553466796875
1704790067959423000,8.454423095703126,-0.1331329345703125,-0.8748626708984375,-0.2309417724609375
1704790067969399000,8.46439892578125,-0.1338348388671875,-0.877227783203125,-0.221954345703125
1704790067979375000,8.474375,-0.1304931640625,-0.86456298828125,-0.2097320556640625
1704790067989351000,8.484350830078125,-0.124755859375,-0.853485107421875,-0.20068359375
1704790067999327000,8.494326904296875,-0.122894287109375,-0.85662841796875,-0.197174072265625
1704790068009303000,8.504302978515625,-0.1209869384765625,-0.87249755859375,-0.1988067626953125
1704790068019279000,8.514279052734375,-0.1257781982421875,-0.9125213623046875,-0.2139129638671875
1704790068029255000,8.5242548828125,-0.1302032470703125,-0.97650146484375,-0.2324676513671875
1704790068039231000,8.53423095703125,-0.1347503662109375,-1.046417236328125,-0.2463531494140625
1704790068049206000,8.5442060546875,-0.1382293701171875,-1.10455322265625,-0.254486083984375
1704790068059181800,8.554181884765624,-0.13922119140625,-1.1352081298828125,-0.25335693359375
1704790068069158100,8.564158203125,-0.1494598388671875,-1.1624908447265625,-0.2576751708984375
1704790068079134000,8.574134033203125,-0.15496826171875,-1.1839447021484375,-0.25848388671875
1704790068089110000,8.584110107421875,-0.1634979248046875,-1.2002716064453125,-0.256988525390625
1704790068099086000,8.594086181640625,-0.1739349365234375,-1.2080230712890625,-0.25201416015625
1704790068109062000,8.604061767578125,-0.1856689453125,-1.2081451416015625,-0.239654541015625
1704790068119038200,8.6140380859375,-0.191192626953125,-1.199127197265625,-0.2254486083984375
1704790068129014000,8.624013916015626,-0.1952972412109375,-1.17779541015625,-0.20159912109375
1704790068138989800,8.63398974609375,-0.1932220458984375,-1.1503753662109375,-0.1806182861328125
1704790068148966100,8.643966064453124,-0.187957763671875,-1.1177520751953125,-0.1573486328125
1704790068158941000,8.65394091796875,-0.1817474365234375,-1.08843994140625,-0.144195556640625
1704790068168917000,8.6639169921875,-0.1761932373046875,-1.077056884765625,-0.1383819580078125
1704790068178893000,8.67389306640625,-0.169921875,-1.0841217041015625,-0.1342010498046875
1704790068188869000,8.683869140625,-0.163665771484375,-1.1082611083984375,-0.13494873046875
1704790068198845200,8.69384521484375,-0.16162109375,-1.1419525146484375,-0.145233154296875
1704790068208821000,8.703821044921876,-0.1610107421875,-1.1840972900390625,-0.1559906005859375
1704790068218797000,8.713797119140626,-0.15728759765625,-1.22564697265625,-0.161834716796875
1704790068228773000,8.723773193359374,-0.1600341796875,-1.2640533447265625,-0.176544189453125
1704790068238749000,8.7337490234375,-0.165679931640625,-1.290679931640625,-0.1861724853515625
1704790068248725000,8.74372509765625,-0.1701202392578125,-1.3071746826171875,-0.1929168701171875
1704790068258700000,8.753699951171875,-0.1712188720703125,-1.3090972900390625,-0.1949005126953125
1704790068268676000,8.763676025390625,-0.1756134033203125,-1.30718994140625,-0.1961212158203125
1704790068278652000,8.77365185546875,-0.1810302734375,-1.304412841796875,-0.1960601806640625
1704790068288627500,8.78362744140625,-0.1831512451171875,-1.2978363037109375,-0.1886444091796875
1704790068298603300,8.793603271484375,-0.1781158447265625,-1.2804718017578125,-0.17919921875
1704790068308579300,8.803579345703126,-0.172760009765625,-1.2521209716796875,-0.1642913818359375
1704790068318555400,8.813555419921874,-0.1695556640625,-1.224578857421875,-0.150604248046875
1704790068328531500,8.823531494140624,-0.1701812744140625,-1.1941375732421875,-0.1392669677734375
1704790068338507500,8.833507568359375,-0.1685791015625,-1.16754150390625,-0.1283111572265625
1704790068348483300,8.8434833984375,-0.1673431396484375,-1.1428070068359375,-0.1117095947265625
1704790068358458600,8.853458740234375,-0.16436767578125,-1.1192626953125,-0.100860595703125
1704790068368434400,8.863434326171875,-0.16009521484375,-1.0929107666015625,-0.09600830078125
1704790068378410200,8.87341015625,-0.1610107421875,-1.0687255859375,-0.0960540771484375
1704790068388386600,8.883386474609376,-0.15716552734375,-1.0552978515625,-0.090545654296875
1704790068398362400,8.8933623046875,-0.154449462890625,-1.052734375,-0.08343505859375
1704790068408338400,8.90333837890625,-0.1467132568359375,-1.0549774169921875,-0.0763702392578125
1704790068418314500,8.913314453125,-0.14447021484375,-1.055450439453125,-0.0726470947265625
1704790068428290300,8.923290283203125,-0.137176513671875,-1.060150146484375,-0.075286865234375
1704790068438266600,8.9332666015625,-0.1371307373046875,-1.0620574951171875,-0.074249267578125
1704790068448242400,8.943242431640625,-0.132171630859375,-1.0641632080078125,-0.0684814453125
1704790068458217500,8.953217529296875,-0.126953125,-1.0669097900390625,-0.062530517578125
1704790068468193300,8.963193359375,-0.127166748046875,-1.0655517578125,-0.0581817626953125
1704790068478169300,8.97316943359375,-0.1278076171875,-1.061553955078125,-0.053619384765625
1704790068488145400,8.9831455078125,-0.1258697509765625,-1.0501708984375,-0.044281005859375
1704790068498121500,8.99312158203125,-0.1208648681640625,-1.0289154052734375,-0.038909912109375
1704790068508097500,9.00309765625,-0.116363525390625,-1.0030364990234375,-0.032867431640625
1704790068518073300,9.0130732421875,-0.1155853271484375,-0.986968994140625,-0.0271759033203125
1704790068528049400,9.02304931640625,-0.1134490966796875,-0.9645538330078125,-0.0233154296875
1704790068538025500,9.033025390625,-0.1112823486328125,-0.9424896240234375,-0.013916015625
1704790068548001300,9.043001220703125,-0.1084136962890625,-0.93072509765625,-0.0099945068359375
1704790068557976600,9.0529765625,-0.1085968017578125,-0.9209747314453125,-0.008697509765625
1704790068567952400,9.062952392578126,-0.103607177734375,-0.91290283203125,-0.0014190673828125
1704790068577928200,9.07292822265625,-0.0995330810546875,-0.9082183837890625,-0.0001220703125
1704790068587904500,9.082904541015624,-0.102081298828125,-0.9060211181640625,-0.0045166015625
1704790068597880300,9.09288037109375,-0.10406494140625,-0.9094696044921875,-0.0027008056640625
1704790068607856600,9.102856689453125,-0.108795166015625,-0.91583251953125,-0.009002685546875
1704790068617832400,9.11283251953125,-0.112396240234375,-0.9256439208984375,-0.0182952880859375
1704790068627808300,9.122808349609375,-0.1165924072265625,-0.940826416015625,-0.02691650390625
1704790068637784600,9.13278466796875,-0.122222900390625,-0.963287353515625,-0.0386962890625
1704790068647760400,9.142760498046876,-0.1320648193359375,-0.9887542724609375,-0.052001953125
1704790068657736200,9.152736083984376,-0.140594482421875,-1.0128021240234375,-0.0637359619140625
1704790068667711500,9.16271142578125,-0.1468505859375,-1.03131103515625,-0.0751800537109375
1704790068677687300,9.172687255859374,-0.1548309326171875,-1.04058837890625,-0.087921142578125
1704790068687663400,9.182663330078125,-0.1637420654296875,-1.047515869140625,-0.0951995849609375
1704790068697639400,9.192639404296875,-0.175537109375,-1.0565185546875,-0.1055450439453125
1704790068707615500,9.202615478515625,-0.1891021728515625,-1.0672760009765625,-0.1214599609375
1704790068717591600,9.212591552734375,-0.2036285400390625,-1.087310791015625,-0.1425933837890625
1704790068727567400,9.2225673828125,-0.217681884765625,-1.1224822998046875,-0.1691436767578125
1704790068737543400,9.23254345703125,-0.229766845703125,-1.179412841796875,-0.1977691650390625
1704790068747519500,9.24251953125,-0.23663330078125,-1.2419586181640625,-0.2197113037109375
1704790068757495300,9.252495361328124,-0.236297607421875,-1.2852630615234375,-0.2285919189453125
1704790068767470300,9.26247021484375,-0.2406768798828125,-1.3157196044921875,-0.2454681396484375
1704790068777446400,9.2724462890625,-0.2479095458984375,-1.32708740234375,-0.2656097412109375
1704790068787422500,9.28242236328125,-0.2529296875,-1.3200531005859375,-0.270416259765625
1704790068797398300,9.292398193359375,-0.256683349609375,-1.3021240234375,-0.2661895751953125
1704790068807374600,9.30237451171875,-0.2545166015625,-1.268402099609375,-0.2535400390625
1704790068817350400,9.312350341796876,-0.2537841796875,-1.2279052734375,-0.241790771484375
1704790068827326200,9.322326171875,-0.2509613037109375,-1.185333251953125,-0.2349853515625
1704790068837302500,9.332302490234374,-0.2503814697265625,-1.1431121826171875,-0.2286834716796875
1704790068847278300,9.3422783203125,-0.2524261474609375,-1.11175537109375,-0.2267913818359375
1704790068857254400,9.35225439453125,-0.2519683837890625,-1.09564208984375,-0.226165771484375
1704790068867229400,9.3622294921875,-0.25732421875,-1.1036376953125,-0.2395477294921875
1704790068877205200,9.372205322265625,-0.2615203857421875,-1.1439666748046875,-0.2580108642578125
1704790068887181600,9.382181640625,-0.2618865966796875,-1.19000244140625,-0.26995849609375
1704790068897157400,9.392157470703125,-0.26739501953125,-1.2279205322265625,-0.295928955078125
1704790068907133400,9.402133544921876,-0.27197265625,-1.262451171875,-0.3245086669921875
1704790068917109500,9.412109619140624,-0.2759552001953125,-1.287994384765625,-0.34246826171875
1704790068927085300,9.422085205078124,-0.2798919677734375,-1.3035125732421875,-0.3548583984375
1704790068937061400,9.432061279296875,-0.2812652587890625,-1.305572509765625,-0.3599700927734375
1704790068947037400,9.442037353515625,-0.2784271240234375,-1.3030548095703125,-0.361114501953125
1704790068957013200,9.45201318359375,-0.2802886962890625,-1.2984771728515625,-0.35992431640625
1704790068966989600,9.461989501953125,-0.2793121337890625,-1.2945556640625,-0.36419677734375
1704790068976964400,9.47196435546875,-0.283782958984375,-1.2869720458984375,-0.3699188232421875
1704790068986940400,9.4819404296875,-0.2832489013671875,-1.29266357421875,-0.379119873046875
1704790068996916200,9.491916259765626,-0.2778778076171875,-1.30889892578125,-0.382781982421875
1704790069006892500,9.501892578125,-0.270782470703125,-1.3119354248046875,-0.379669189453125
1704790069016868400,9.511868408203124,-0.2661590576171875,-1.2964019775390625,-0.3815460205078125
1704790069026844400,9.521844482421875,-0.2593841552734375,-1.268463134765625,-0.3760528564453125
1704790069036820500,9.531820556640625,-0.2545623779296875,-1.229827880859375,-0.3596038818359375
1704790069046796300,9.54179638671875,-0.255279541015625,-1.19573974609375,-0.3533935546875
1704790069056772400,9.5517724609375,-0.251068115234375,-1.1627349853515625,-0.34320068359375
1704790069066748400,9.56174853515625,-0.250457763671875,-1.1382293701171875,-0.3381805419921875
1704790069076723500,9.571723388671876,-0.2472686767578125,-1.114837646484375,-0.3333892822265625
1704790069086699500,9.581699462890626,-0.2441253662109375,-1.0882110595703125,-0.325958251953125
1704790069096675300,9.59167529296875,-0.2411346435546875,-1.0696563720703125,-0.3240203857421875
1704790069106651400,9.6016513671875,-0.2342987060546875,-1.0513458251953125,-0.32464599609375
1704790069116627500,9.61162744140625,-0.2310638427734375,-1.0344390869140625,-0.3219451904296875
1704790069126603300,9.621603271484375,-0.2245330810546875,-1.0149078369140625,-0.31646728515625
1704790069136579600,9.63157958984375,-0.2185211181640625,-1.000457763671875,-0.31268310546875
1704790069146555400,9.641555419921875,-0.2114105224609375,-0.9830780029296875,-0.3045196533203125
1704790069156531500,9.651531494140626,-0.20538330078125,-0.9637908935546875,-0.2987060546875
1704790069166507500,9.661507568359376,-0.1961669921875,-0.942840576171875,-0.2906494140625
1704790069176483300,9.6714833984375,-0.1914215087890625,-0.919464111328125,-0.2830963134765625
1704790069186458400,9.681458251953124,-0.1865081787109375,-0.8941650390625,-0.277130126953125
1704790069196434400,9.691434326171875,-0.1824493408203125,-0.8674774169921875,-0.27398681640625
1704790069206410500,9.701410400390625,-0.18115234375,-0.846527099609375,-0.2718658447265625
1704790069216386300,9.71138623046875,-0.1761474609375,-0.8272857666015625,-0.26519775390625
1704790069226362400,9.7213623046875,-0.1740264892578125,-0.807891845703125,-0.26068115234375
1704790069236338400,9.73133837890625,-0.1666259765625,-0.79058837890625,-0.251190185546875
1704790069246314200,9.741314208984376,-0.1572723388671875,-0.7660064697265625,-0.2445220947265625
1704790069256290600,9.75129052734375,-0.151702880859375,-0.7509307861328125,-0.2420806884765625
1704790069266266400,9.761266357421874,-0.145538330078125,-0.7337799072265625,-0.2331695556640625
1704790069276242400,9.771242431640625,-0.1366729736328125,-0.721832275390625,-0.231842041015625
1704790069286217500,9.781217529296875,-0.1383514404296875,-0.7225799560546875,-0.2379913330078125
1704790069296193300,9.791193359375,-0.137298583984375,-0.727081298828125,-0.2406768798828125
1704790069306169600,9.801169677734375,-0.136932373046875,-0.7390899658203125,-0.2453155517578125
1704790069316145400,9.8111455078125,-0.1347503662109375,-0.75238037109375,-0.248504638671875
1704790069326121200,9.821121337890625,-0.131927490234375,-0.752593994140625,-0.2516326904296875
1704790069336097500,9.83109765625,-0.12615966796875,-0.75543212890625,-0.25628662109375
1704790069346073300,9.8410732421875,-0.1250457763671875,-0.769927978515625,-0.2626190185546875
1704790069356049400,9.85104931640625,-0.121307373046875,-0.7914276123046875,-0.260955810546875
1704790069366025500,9.861025390625,-0.1157989501953125,-0.810150146484375,-0.2558441162109375
1704790069376001300,9.871001220703125,-0.113616943359375,-0.820770263671875,-0.254364013671875
1704790069385977600,9.8809775390625,-0.1157073974609375,-0.8314208984375,-0.26531982421875
1704790069395952400,9.890952392578125,-0.1184844970703125,-0.847259521484375,-0.2623291015625
1704790069405928400,9.900928466796875,-0.1219482421875,-0.87652587890625,-0.2610626220703125
1704790069415904500,9.910904541015626,-0.12591552734375,-0.8960418701171875,-0.2537384033203125
1704790069425880300,9.92088037109375,-0.13140869140625,-0.90631103515625,-0.250946044921875
1704790069435856400,9.9308564453125,-0.1396026611328125,-0.9333343505859375,-0.2539215087890625
1704790069445832400,9.94083251953125,-0.1433563232421875,-0.9648284912109375,-0.2509765625
1704790069455808500,9.95080859375,-0.1539154052734375,-1.012908935546875,-0.2571868896484375
1704790069465784300,9.960784423828125,-0.1633148193359375,-1.0774383544921875,-0.2743988037109375
1704790069475760400,9.970760498046875,-0.1605987548828125,-1.135986328125,-0.277801513671875
1704790069485736400,9.980736328125,-0.1535491943359375,-1.172210693359375,-0.2743377685546875
1704790069495712500,9.99071240234375,-0.15618896484375,-1.204559326171875,-0.282501220703125
1704790069505687600,10.0006875,-0.1591339111328125,-1.238494873046875,-0.284332275390625
1704790069515663400,10.010663330078126,-0.159423828125,-1.2606658935546875,-0.288665771484375
1704790069525639200,10.02063916015625,-0.166778564453125,-1.2759857177734375,-0.308319091796875
1704790069535615500,10.030615478515625,-0.1660308837890625,-1.2834014892578125,-0.3064727783203125
1704790069545591300,10.04059130859375,-0.1648712158203125,-1.2724456787109375,-0.2911224365234375
1704790069555567600,10.050567626953125,-0.1605682373046875,-1.238006591796875,-0.26763916015625
1704790069565543400,10.06054345703125,-0.156158447265625,-1.1978759765625,-0.24090576171875
1704790069575519200,10.070519287109375,-0.14935302734375,-1.16180419921875,-0.218658447265625
1704790069585495600,10.08049560546875,-0.1461944580078125,-1.135284423828125,-0.199188232421875
1704790069595471400,10.090471435546876,-0.1463165283203125,-1.12493896484375,-0.190826416015625
1704790069605446400,10.1004462890625,-0.1435089111328125,-1.13006591796875,-0.1885833740234375
1704790069615422500,10.11042236328125,-0.1405181884765625,-1.1481170654296875,-0.1923980712890625
1704790069625398300,10.120398193359375,-0.144927978515625,-1.1699981689453125,-0.203369140625
1704790069635374300,10.130374267578125,-0.14910888671875,-1.2083740234375,-0.2072296142578125
1704790069645350400,10.140350341796875,-0.153717041015625,-1.2548370361328125,-0.2066192626953125
1704790069655326500,10.150326416015625,-0.17022705078125,-1.3081817626953125,-0.2193603515625
1704790069665302500,10.160302490234375,-0.1869049072265625,-1.359039306640625,-0.23126220703125
1704790069675278300,10.1702783203125,-0.1932373046875,-1.3902587890625,-0.2294464111328125
1704790069685254400,10.18025439453125,-0.1978607177734375,-1.4194183349609375,-0.2243194580078125
1704790069695230500,10.19023046875,-0.2036285400390625,-1.425689697265625,-0.2196807861328125
1704790069705206300,10.200206298828125,-0.2052459716796875,-1.41094970703125,-0.212615966796875
1704790069715181300,10.210181396484375,-0.204498291015625,-1.3770904541015625,-0.2033843994140625
1704790069725157400,10.220157470703125,-0.2083740234375,-1.3309783935546875,-0.1861114501953125
1704790069735133400,10.230133544921875,-0.204986572265625,-1.2825775146484375,-0.1638336181640625
1704790069745109200,10.240109130859375,-0.201080322265625,-1.2328033447265625,-0.143829345703125
1704790069755085600,10.25008544921875,-0.1914215087890625,-1.179351806640625,-0.1195526123046875
1704790069765061400,10.260061279296876,-0.182952880859375,-1.1330108642578125,-0.0996856689453125
1704790069775037200,10.270037109375,-0.1774139404296875,-1.09356689453125,-0.0880889892578125
1704790069785013500,10.280013427734374,-0.1671142578125,-1.0650177001953125,-0.0786590576171875
1704790069794989300,10.2899892578125,-0.162078857421875,-1.03948974609375,-0.0720367431640625
1704790069804965400,10.29996533203125,-0.15716552734375,-1.025634765625,-0.0731353759765625
1704790069814940400,10.3099404296875,-0.1567840576171875,-1.02960205078125,-0.07891845703125
1704790069824916500,10.31991650390625,-0.155914306640625,-1.035980224609375,-0.077484130859375
1704790069834892500,10.329892578125,-0.1517333984375,-1.04852294921875,-0.07623291015625
1704790069844868400,10.339868408203126,-0.1483154296875,-1.0515289306640625,-0.077728271484375
1704790069854844400,10.349844482421876,-0.1467742919921875,-1.0544891357421875,-0.0790557861328125
1704790069864820500,10.359820556640624,-0.1442718505859375,-1.0536651611328125,-0.0791778564453125
1704790069874796300,10.36979638671875,-0.14080810546875,-1.04803466796875,-0.07623291015625
1704790069884772400,10.3797724609375,-0.137115478515625,-1.0325775146484375,-0.06817626953125
1704790069894748400,10.38974853515625,-0.1317901611328125,-1.009796142578125,-0.0587921142578125
1704790069904724500,10.399724365234375,-0.1326141357421875,-0.9910888671875,-0.052886962890625
1704790069914700500,10.409700439453125,-0.1315460205078125,-0.969696044921875,-0.03875732421875
1704790069924675600,10.419675537109375,-0.1270751953125,-0.9422149658203125,-0.0310516357421875
1704790069934651400,10.4296513671875,-0.1285552978515625,-0.923919677734375,-0.0278167724609375
1704790069944627500,10.43962744140625,-0.1273345947265625,-0.910491943359375,-0.0203094482421875
1704790069954603500,10.449603515625,-0.12249755859375,-0.898223876953125,-0.016387939453125
1704790069964579300,10.459579345703125,-0.11944580078125,-0.8887176513671875,-0.0181121826171875
1704790069974555400,10.469555419921875,-0.1170654296875,-0.8824615478515625,-0.0236358642578125
1704790069984531500,10.479531494140625,-0.11590576171875,-0.882293701171875,-0.0278778076171875
1704790069994507300,10.48950732421875,-0.1148834228515625,-0.8855438232421875,-0.0276641845703125
1704790070004483600,10.499483642578125,-0.115966796875,-0.89605712890625,-0.0340576171875
1704790070014459400,10.50945947265625,-0.1179962158203125,-0.9141693115234375,-0.047119140625
1704790070024435500,10.519435546875,-0.116943359375,-0.9313507080078125,-0.0500946044921875
1704790070034410500,10.529410400390624,-0.1185302734375,-0.9456024169921875,-0.056243896484375
1704790070044386300,10.53938623046875,-0.1225433349609375,-0.9544830322265625,-0.07012939453125
1704790070054362400,10.5493623046875,-0.12530517578125,-0.962677001953125,-0.0727386474609375
1704790070064338400,10.55933837890625,-0.1248321533203125,-0.9680328369140625,-0.077667236328125
1704790070074314200,10.569314208984375,-0.133148193359375,-0.9780731201171875,-0.0904998779296875
1704790070084290600,10.57929052734375,-0.1392059326171875,-0.990570068359375,-0.0991363525390625
1704790070094266400,10.589266357421875,-0.1477508544921875,-1.0079498291015625,-0.115936279296875
1704790070104242400,10.599242431640626,-0.160247802734375,-1.02587890625,-0.136505126953125
1704790070114218500,10.609218505859374,-0.174652099609375,-1.043975830078125,-0.1511688232421875
1704790070124194300,10.6191943359375,-0.184967041015625,-1.0670318603515625,-0.167694091796875
1704790070134169300,10.62916943359375,-0.1952362060546875,-1.090911865234375,-0.188934326171875
1704790070144145400,10.6391455078125,-0.2039794921875,-1.111968994140625,-0.2135772705078125
1704790070154121500,10.64912158203125,-0.2139739990234375,-1.137542724609375,-0.246612548828125
1704790070164097300,10.65909716796875,-0.222137451171875,-1.1639404296875,-0.266448974609375
1704790070174073300,10.6690732421875,-0.222686767578125,-1.1829986572265625,-0.2795867919921875
1704790070184049400,10.67904931640625,-0.22015380859375,-1.1903076171875,-0.290069580078125
1704790070194025500,10.689025390625,-0.2230072021484375,-1.191009521484375,-0.3048095703125
1704790070204001500,10.69900146484375,-0.227691650390625,-1.1940155029296875,-0.32891845703125
1704790070213977300,10.708977294921874,-0.232635498046875,-1.1941375732421875,-0.3452301025390625
1704790070223953400,10.718953369140625,-0.2368621826171875,-1.190765380859375,-0.350738525390625
1704790070233929500,10.728929443359375,-0.2430267333984375,-1.1920013427734375,-0.3531341552734375
1704790070243904300,10.738904296875,-0.248748779296875,-1.2056121826171875,-0.3578948974609375
1704790070253880600,10.748880615234375,-0.249298095703125,-1.2187957763671875,-0.3642120361328125
1704790070263856400,10.7588564453125,-0.252655029296875,-1.23004150390625,-0.373260498046875
1704790070273832400,10.76883251953125,-0.256500244140625,-1.2290191650390625,-0.3837890625
1704790070283808500,10.77880859375,-0.2618865966796875,-1.220611572265625,-0.3893280029296875
1704790070293784600,10.78878466796875,-0.26409912109375,-1.2062835693359375,-0.39263916015625
1704790070303760600,10.7987607421875,-0.2670440673828125,-1.1880035400390625,-0.385223388671875
1704790070313736700,10.80873681640625,-0.268096923828125,-1.1774444580078125,-0.3795166015625
1704790070323712500,10.81871240234375,-0.2625885009765625,-1.1621856689453125,-0.3697509765625
1704790070333688800,10.828688720703125,-0.2565765380859375,-1.1423797607421875,-0.361175537109375
1704790070343664600,10.83866455078125,-0.256683349609375,-1.1322021484375,-0.36004638671875
1704790070353639700,10.8486396484375,-0.2486724853515625,-1.12451171875,-0.352630615234375
1704790070363615700,10.85861572265625,-0.2431640625,-1.1097564697265625,-0.3437957763671875
1704790070373591600,10.868591552734374,-0.2427520751953125,-1.09405517578125,-0.3458709716796875
1704790070383567600,10.878567626953124,-0.237762451171875,-1.0794525146484375,-0.343658447265625
1704790070393543700,10.888543701171875,-0.2339630126953125,-1.0636749267578125,-0.3398895263671875
1704790070403519700,10.898519775390625,-0.2346954345703125,-1.0643310546875,-0.342987060546875
1704790070413495600,10.90849560546875,-0.233062744140625,-1.07952880859375,-0.340789794921875
1704790070423471600,10.9184716796875,-0.2271270751953125,-1.10321044921875,-0.338775634765625
1704790070433447700,10.92844775390625,-0.2006683349609375,-1.1298980712890625,-0.3450469970703125
1704790070443423700,10.938423828125,-0.2126312255859375,-1.1498565673828125,-0.3450164794921875
1704790070453398800,10.948398681640626,-0.22015380859375,-1.147705078125,-0.3520050048828125
1704790070463374600,10.95837451171875,-0.2309417724609375,-1.1279296875,-0.3686981201171875
1704790070473350700,10.9683505859375,-0.2259674072265625,-1.11199951171875,-0.3690643310546875
1704790070483326700,10.97832666015625,-0.22607421875,-1.1059417724609375,-0.3638153076171875
1704790070493302500,10.988302490234375,-0.218017578125,-1.080078125,-0.3414154052734375
1704790070503278800,10.99827880859375,-0.21612548828125,-1.0673828125,-0.327239990234375
1704790070513254700,11.008254638671875,-0.2159423828125,-1.0742645263671875,-0.34051513671875
1704790070523230500,11.01823046875,-0.207275390625,-1.04486083984375,-0.310516357421875
1704790070533206800,11.028206787109376,-0.2045745849609375,-1.02435302734375,-0.30419921875
1704790070543182600,11.0381826171875,-0.19757080078125,-0.9961090087890625,-0.2991790771484375
1704790070553158700,11.04815869140625,-0.1920928955078125,-0.9643402099609375,-0.2827606201171875
1704790070563133700,11.0581337890625,-0.1891021728515625,-0.9347076416015625,-0.269744873046875
1704790070573109500,11.068109619140625,-0.1887054443359375,-0.910400390625,-0.2621002197265625
1704790070583085600,11.07808544921875,-0.1855621337890625,-0.8903961181640625,-0.259002685546875
1704790070593061600,11.0880615234375,-0.1802520751953125,-0.8701934814453125,-0.2537384033203125
1704790070603037700,11.09803759765625,-0.1772003173828125,-0.856903076171875,-0.2549285888671875
1704790070613013800,11.108013671875,-0.17138671875,-0.8524169921875,-0.254669189453125
1704790070622989600,11.117989501953126,-0.1704559326171875,-0.85174560546875,-0.254547119140625
1704790070632965600,11.127965576171874,-0.165618896484375,-0.8474578857421875,-0.2567596435546875
1704790070642941700,11.137941650390625,-0.1625213623046875,-0.8424530029296875,-0.25262451171875
1704790070652917500,11.14791748046875,-0.1568756103515625,-0.834930419921875,-0.2520599365234375
1704790070662893800,11.157893798828125,-0.1504974365234375,-0.8293914794921875,-0.246185302734375
1704790070672868600,11.16786865234375,-0.143768310546875,-0.8232269287109375,-0.239471435546875
1704790070682844700,11.1778447265625,-0.13946533203125,-0.8159942626953125,-0.2430419921875
1704790070692820500,11.187820556640625,-0.140899658203125,-0.8149261474609375,-0.2457427978515625
1704790070702796800,11.197796875,-0.1392822265625,-0.821319580078125,-0.241363525390625
1704790070712772600,11.207772705078124,-0.1446990966796875,-0.8377532958984375,-0.2397308349609375
1704790070722748700,11.217748779296874,-0.1444854736328125,-0.8471221923828125,-0.2357635498046875
1704790070732724700,11.227724853515625,-0.1492919921875,-0.85748291015625,-0.2325286865234375
1704790070742700500,11.237700439453125,-0.1533203125,-0.8695068359375,-0.2333984375
1704790070752676600,11.247676513671875,-0.151641845703125,-0.8799591064453125,-0.2263336181640625
1704790070762652700,11.257652587890625,-0.1498870849609375,-0.8943939208984375,-0.223785400390625
1704790070772628500,11.26762841796875,-0.151275634765625,-0.90496826171875,-0.22430419921875
1704790070782604800,11.277604736328126,-0.148345947265625,-0.9125213623046875,-0.2230377197265625
1704790070792579600,11.28757958984375,-0.1468963623046875,-0.920318603515625,-0.2183837890625
1704790070802555600,11.2975556640625,-0.147613525390625,-0.9247894287109375,-0.2115936279296875
1704790070812531700,11.30753173828125,-0.1478729248046875,-0.9282073974609375,-0.2001190185546875
1704790070822507500,11.317507568359375,-0.148681640625,-0.9370574951171875,-0.195098876953125
1704790070832483800,11.32748388671875,-0.150543212890625,-0.9390869140625,-0.194427490234375
1704790070842459600,11.337459716796875,-0.1514739990234375,-0.940704345703125,-0.19189453125
1704790070852435700,11.347435791015625,-0.1555938720703125,-0.948150634765625,-0.191680908203125
1704790070862411800,11.357411865234376,-0.155609130859375,-0.9578704833984375,-0.1874542236328125
1704790070872387600,11.3673876953125,-0.1604766845703125,-0.9724273681640625,-0.1876678466796875
1704790070882363600,11.37736376953125,-0.16326904296875,-0.994720458984375,-0.182769775390625
1704790070892339700,11.387339599609374,-0.1667633056640625,-1.0163116455078125,-0.1725921630859375
1704790070902314800,11.397314697265625,-0.16961669921875,-1.0323028564453125,-0.1700286865234375
1704790070912290600,11.40729052734375,-0.1791839599609375,-1.0418853759765625,-0.16510009765625
1704790070922266600,11.4172666015625,-0.180694580078125,-1.0525360107421875,-0.1574249267578125
1704790070932242700,11.42724267578125,-0.1856231689453125,-1.057586669921875,-0.1492767333984375
1704790070942218500,11.437218505859375,-0.1911773681640625,-1.0622100830078125,-0.143768310546875
1704790070952194800,11.44719482421875,-0.197052001953125,-1.067657470703125,-0.1391143798828125
1704790070962170600,11.457170654296876,-0.1995697021484375,-1.0689849853515625,-0.13397216796875
1704790070972146700,11.467146728515624,-0.2027740478515625,-1.076507568359375,-0.131256103515625
1704790070982122800,11.477122802734375,-0.20513916015625,-1.0879669189453125,-0.12640380859375
1704790070992098600,11.4870986328125,-0.2050018310546875,-1.09661865234375,-0.12432861328125
1704790071002073900,11.497073974609375,-0.2075653076171875,-1.10540771484375,-0.124298095703125
1704790071012049700,11.507049560546875,-0.2054290771484375,-1.1060943603515625,-0.12652587890625
1704790071022025500,11.517025390625,-0.2093353271484375,-1.1112060546875,-0.1295013427734375
1704790071032001800,11.527001708984375,-0.2073211669921875,-1.114593505859375,-0.12652587890625
1704790071041977600,11.5369775390625,-0.205169677734375,-1.1127166748046875,-0.128173828125
1704790071051953700,11.54695361328125,-0.2093963623046875,-1.11944580078125,-0.134674072265625
1704790071061929700,11.5569296875,-0.209503173828125,-1.125030517578125,-0.1358795166015625
1704790071071905500,11.566905517578125,-0.2117919921875,-1.1308441162109375,-0.1427459716796875
1704790071081881900,11.5768818359375,-0.2152099609375,-1.140411376953125,-0.15252685546875
1704790071091857700,11.586857666015625,-0.2147216796875,-1.1463623046875,-0.1541900634765625
1704790071101833500,11.59683349609375,-0.21405029296875,-1.1503753662109375,-0.1558685302734375
1704790071111808500,11.60680859375,-0.2158203125,-1.1501007080078125,-0.15594482421875
1704790071121784600,11.61678466796875,-0.2140045166015625,-1.1389923095703125,-0.1546478271484375
1704790071131760600,11.6267607421875,-0.215545654296875,-1.132598876953125,-0.1546630859375
1704790071141736700,11.63673681640625,-0.2143707275390625,-1.1267852783203125,-0.153045654296875
1704790071151712800,11.646712646484374,-0.2154083251953125,-1.1174468994140625,-0.147735595703125
1704790071161688600,11.6566884765625,-0.2149810791015625,-1.1081085205078125,-0.14373779296875
1704790071171664600,11.66666455078125,-0.2141265869140625,-1.0982513427734375,-0.138641357421875
1704790071181640700,11.676640625,-0.2114715576171875,-1.089599609375,-0.1350860595703125
1704790071191616800,11.68661669921875,-0.210968017578125,-1.0770111083984375,-0.1302490234375
1704790071201592600,11.696592529296876,-0.2095794677734375,-1.0634002685546875,-0.1257171630859375
1704790071211568600,11.706568603515626,-0.2086029052734375,-1.0570220947265625,-0.128936767578125
1704790071221543400,11.71654345703125,-0.2050628662109375,-1.051300048828125,-0.1248321533203125
1704790071231519700,11.726519775390624,-0.20477294921875,-1.0484619140625,-0.1259613037109375
1704790071241495600,11.73649560546875,-0.200531005859375,-1.05029296875,-0.1227874755859375
1704790071251472000,11.746471923828125,-0.1956329345703125,-1.050811767578125,-0.116180419921875
1704790071261447700,11.75644775390625,-0.1925506591796875,-1.0531158447265625,-0.1145782470703125
1704790071271423500,11.766423583984375,-0.18768310546875,-1.0512237548828125,-0.111114501953125
1704790071281399800,11.77639990234375,-0.1832275390625,-1.04010009765625,-0.1071624755859375
1704790071291379700,11.786379638671875,-0.182830810546875,-1.0320281982421875,-0.110382080078125
1704790071301355500,11.79635546875,-0.1827545166015625,-1.032257080078125,-0.1097259521484375
1704790071311331800,11.806331787109375,-0.1768951416015625,-1.0303802490234375,-0.1004180908203125
1704790071321307600,11.8163076171875,-0.16748046875,-1.0177764892578125,-0.0888824462890625
1704790071331283500,11.826283447265626,-0.162933349609375,-1.0115203857421875,-0.0864715576171875
1704790071341258800,11.8362587890625,-0.1598968505859375,-1.0089111328125,-0.0882415771484375
1704790071351234600,11.846234619140626,-0.148651123046875,-0.9959564208984375,-0.0800628662109375
1704790071361210600,11.856210693359374,-0.139404296875,-0.989959716796875,-0.0766143798828125
1704790071371186700,11.866186767578125,-0.127899169921875,-0.9801177978515625,-0.074066162109375
1704790071381162800,11.876162841796875,-0.1187591552734375,-0.9754638671875,-0.0738983154296875
1704790071391138600,11.886138671875,-0.1058349609375,-0.973785400390625,-0.079010009765625
1704790071401114600,11.896114501953125,-0.1004180908203125,-0.9694976806640625,-0.084564208984375
1704790071411090700,11.906090576171875,-0.09100341796875,-0.9792938232421875,-0.0936737060546875
1704790071421066800,11.916066650390626,-0.0879058837890625,-0.986358642578125,-0.09722900390625
1704790071431042600,11.92604248046875,-0.0782623291015625,-0.9925537109375,-0.10260009765625
1704790071441018600,11.9360185546875,-0.067657470703125,-1.00250244140625,-0.10400390625
1704790071450993700,11.94599365234375,-0.056121826171875,-1.004241943359375,-0.1005096435546875
1704790071460969700,11.9559697265625,-0.0498504638671875,-1.0146026611328125,-0.104736328125
1704790071470945500,11.965945556640625,-0.0419921875,-1.022430419921875,-0.104278564453125
1704790071480921900,11.975921875,-0.0373077392578125,-1.02642822265625,-0.1027374267578125
1704790071490897700,11.985897705078125,-0.0440673828125,-1.03729248046875,-0.1016082763671875
1704790071500873500,11.99587353515625,-0.0431060791015625,-1.04693603515625,-0.098358154296875
1704790071510849800,12.005849853515626,-0.04278564453125,-1.05487060546875,-0.1000518798828125
1704790071520825600,12.01582568359375,-0.0429534912109375,-1.0576629638671875,-0.10272216796875
1704790071530801700,12.0258017578125,-0.0481109619140625,-1.0598907470703125,-0.103546142578125
1704790071540777700,12.03577783203125,-0.0525054931640625,-1.073638916015625,-0.0977325439453125
1704790071550753500,12.04575341796875,-0.056793212890625,-1.0915679931640625,-0.09344482421875
1704790071560728600,12.055728515625,-0.063690185546875,-1.1008758544921875,-0.0940399169921875
1704790071570704600,12.06570458984375,-0.0670623779296875,-1.1067962646484375,-0.0914154052734375
1704790071580680700,12.0756806640625,-0.0713958740234375,-1.1171722412109375,-0.0883636474609375
1704790071590656800,12.08565673828125,-0.0777435302734375,-1.1328277587890625,-0.0864715576171875
1704790071600632600,12.095632568359376,-0.09295654296875,-1.1658782958984375,-0.07952880859375
1704790071610608600,12.105608642578124,-0.1040496826171875,-1.2045745849609375,-0.06640625
1704790071620584700,12.115584716796874,-0.117767333984375,-1.2426300048828125,-0.0443572998046875
1704790071630560500,12.125560546875,-0.1316986083984375,-1.2730255126953125,-0.0283203125
1704790071640536600,12.13553662109375,-0.143585205078125,-1.3036041259765625,-0.023956298828125
1704790071650512600,12.1455126953125,-0.153350830078125,-1.318939208984375,-0.0127105712890625
1704790071660488700,12.15548876953125,-0.1543426513671875,-1.3235931396484375,-0.0137786865234375
1704790071670464800,12.16546484375,-0.1560516357421875,-1.32012939453125,-0.0187225341796875
1704790071680439800,12.175439697265626,-0.1566162109375,-1.3192138671875,-0.009490966796875
1704790071690415600,12.18541552734375,-0.1569366455078125,-1.329254150390625,-0.0091552734375
1704790071700391700,12.1953916015625,-0.1611480712890625,-1.337066650390625,0.0107879638671875
1704790071710367700,12.20536767578125,-0.15869140625,-1.35247802734375,0.0330963134765625
1704790071720343600,12.215343505859375,-0.165130615234375,-1.361175537109375,0.0464019775390625
1704790071730319600,12.225319580078125,-0.18072509765625,-1.370635986328125,0.048370361328125
1704790071740295700,12.235295654296875,-0.1817779541015625,-1.37908935546875,0.0645904541015625
1704790071750271500,12.245271484375,-0.1822357177734375,-1.36993408203125,0.081787109375
1704790071760247800,12.255247802734376,-0.1870574951171875,-1.3560791015625,0.082855224609375
1704790071770223600,12.2652236328125,-0.1943511962890625,-1.3429718017578125,0.095733642578125
1704790071780198700,12.27519873046875,-0.1830596923828125,-1.3209381103515625,0.1075286865234375
1704790071790174700,12.2851748046875,-0.1781463623046875,-1.2982940673828125,0.1128082275390625
1704790071800150500,12.295150634765625,-0.177337646484375,-1.281341552734375,0.111236572265625
1704790071810126600,12.305126708984375,-0.177825927734375,-1.27783203125,0.122100830078125
1704790071820102700,12.3151025390625,-0.1665496826171875,-1.2856292724609375,0.1417236328125
1704790071830078700,12.32507861328125,-0.137359619140625,-1.2702178955078125,0.1536407470703125
1704790071840054800,12.3350546875,-0.138671875,-1.249237060546875,0.1454010009765625
1704790071850030600,12.345030517578126,-0.129302978515625,-1.234588623046875,0.1413726806640625
1704790071860006700,12.355006591796876,-0.1065216064453125,-1.2313995361328125,0.165191650390625
1704790071869982700,12.364982666015624,-0.097503662109375,-1.2349700927734375,0.1823272705078125
1704790071879958500,12.37495849609375,-0.092437744140625,-1.2220458984375,0.1986541748046875
1704790071889934600,12.3849345703125,-0.0801849365234375,-1.21429443359375,0.2002716064453125
1704790071899909600,12.39490966796875,-0.077423095703125,-1.2050018310546875,0.2144775390625
1704790071909885700,12.4048857421875,-0.060211181640625,-1.189178466796875,0.2343292236328125
1704790071919861500,12.414861572265625,-0.0472259521484375,-1.152069091796875,0.2351837158203125
1704790071929837800,12.424837890625,-0.0380706787109375,-1.1023101806640625,0.223358154296875
1704790071939813600,12.434813720703126,-0.0386810302734375,-1.0665435791015625,0.2247772216796875
1704790071949789700,12.444789794921874,-0.0274810791015625,-1.0428314208984375,0.235595703125
1704790071959765800,12.454765869140624,-0.018829345703125,-1.0036773681640625,0.2391357421875
1704790071969741600,12.464741455078125,-0.0080413818359375,-0.9536895751953125,0.23504638671875
1704790071979717600,12.474717529296875,0.0099945068359375,-0.9009857177734375,0.2321014404296875
1704790071989693700,12.484693603515625,0.0172576904296875,-0.857513427734375,0.23297119140625
1704790071999669500,12.49466943359375,0.0229339599609375,-0.827606201171875,0.2462158203125
1704790072009644800,12.504644775390625,0.0466461181640625,-0.790496826171875,0.25408935546875
1704790072019620600,12.51462060546875,0.062530517578125,-0.7475128173828125,0.2478790283203125
1704790072029596700,12.5245966796875,0.0775604248046875,-0.709747314453125,0.236480712890625
1704790072039572700,12.53457275390625,0.09417724609375,-0.67730712890625,0.2233428955078125
1704790072049548500,12.544548583984374,0.104644775390625,-0.6567535400390625,0.2154388427734375
1704790072059524900,12.55452490234375,0.1225128173828125,-0.6475067138671875,0.2126922607421875
1704790072069500700,12.564500732421875,0.1978302001953125,-0.68804931640625,0.203948974609375
1704790072079476500,12.5744765625,0.4671478271484375,-0.7043914794921875,0.1639556884765625
1704790072089452800,12.584452880859375,0.405487060546875,-0.700897216796875,0.2031707763671875
1704790072099428600,12.5944287109375,0.20684814453125,-0.6720733642578125,0.2262420654296875
1704790072109404700,12.60440478515625,0.2652587890625,-0.638946533203125,0.155487060546875
1704790072119379700,12.614379638671876,0.236175537109375,-0.6172027587890625,0.1013946533203125
1704790072129355800,12.624355712890624,0.20635986328125,-0.59503173828125,0.09075927734375
1704790072139331600,12.63433154296875,0.2148284912109375,-0.587646484375,0.0914459228515625
1704790072149307600,12.6443076171875,0.2361602783203125,-0.5856475830078125,0.1113128662109375
1704790072159283700,12.65428369140625,0.2537078857421875,-0.5727691650390625,0.1367034912109375
1704790072169259500,12.664259521484375,0.265716552734375,-0.556854248046875,0.1649017333984375
1704790072179235600,12.674235595703125,0.2481231689453125,-0.544158935546875,0.1891632080078125
1704790072189211600,12.684211669921876,0.221282958984375,-0.528411865234375,0.205474853515625
1704790072199187700,12.694187744140624,0.2758026123046875,-0.5178070068359375,0.235809326171875
1704790072209163800,12.704163818359374,0.3290252685546875,-0.5384063720703125,0.2381744384765625
1704790072219139600,12.7141396484375,0.5453338623046875,-0.56610107421875,0.0897979736328125
1704790072229115600,12.72411572265625,0.77935791015625,-0.6748504638671875,-0.057464599609375
1704790072239090700,12.734090576171875,0.63385009765625,-0.6403350830078125,-0.0168304443359375
1704790072249066500,12.74406640625,0.53717041015625,-0.6018829345703125,0.0662994384765625
1704790072259042800,12.754042724609375,0.50543212890625,-0.552642822265625,0.1122894287109375
