time,seconds_elapsed,z,y,x
1704370119889998300,0.021998291015625,-1.1225738525390625,-0.16888427734375,0.0033721923828125
1704370119899974400,0.031974365234375,-1.1229248046875,-0.167022705078125,0.0003662109375
1704370119909950200,0.0419501953125,-1.108612060546875,-0.17236328125,-0.010986328125
1704370119919926500,0.051926513671875,-1.084625244140625,-0.184661865234375,-0.0299224853515625
1704370119929902300,0.06190234375,-1.0576629638671875,-0.2046051025390625,-0.054931640625
1704370119939878400,0.07187841796875,-1.028594970703125,-0.227874755859375,-0.0787506103515625
1704370119949854500,0.0818544921875,-0.999755859375,-0.2434539794921875,-0.097259521484375
1704370119959830300,0.091830322265625,-0.972320556640625,-0.25555419921875,-0.1063232421875
1704370119969806300,0.101806396484375,-0.9542999267578125,-0.265625,-0.1042938232421875
1704370119979782400,0.111782470703125,-0.94146728515625,-0.2722625732421875,-0.092987060546875
1704370119989758200,0.12175830078125,-0.9347076416015625,-0.2752685546875,-0.07391357421875
1704370119999734500,0.131734619140625,-0.9395294189453125,-0.274200439453125,-0.052703857421875
1704370120009710300,0.14171044921875,-0.9556121826171875,-0.2698974609375,-0.0321044921875
1704370120019686400,0.151686279296875,-0.972320556640625,-0.2550506591796875,-0.0201568603515625
1704370120029662500,0.161662353515625,-0.985626220703125,-0.24066162109375,-0.0125885009765625
1704370120039638300,0.17163818359375,-0.997100830078125,-0.23016357421875,-0.0081787109375
1704370120049614300,0.1816142578125,-1.008087158203125,-0.22723388671875,-0.0085601806640625
1704370120059590400,0.19159033203125,-1.0198211669921875,-0.230682373046875,-0.009124755859375
1704370120069566200,0.201566162109375,-1.027069091796875,-0.234954833984375,-0.0133819580078125
1704370120079542300,0.211542236328125,-1.0302581787109375,-0.2392578125,-0.0240325927734375
1704370120089518300,0.221518310546875,-1.0252532958984375,-0.246429443359375,-0.03521728515625
1704370120099494400,0.231494384765625,-1.0138702392578125,-0.25457763671875,-0.0458831787109375
1704370120109470500,0.241470458984375,-0.998779296875,-0.2640838623046875,-0.0533905029296875
1704370120119446300,0.2514462890625,-0.9876556396484375,-0.2754364013671875,-0.0619659423828125
1704370120129422300,0.26142236328125,-0.9848480224609375,-0.284149169921875,-0.0685272216796875
1704370120139398400,0.2713984375,-0.9808502197265625,-0.285552978515625,-0.07489013671875
1704370120149374200,0.281374267578125,-0.9736480712890625,-0.2776947021484375,-0.0823211669921875
1704370120159350300,0.291350341796875,-0.9628448486328125,-0.2666015625,-0.0857086181640625
1704370120169326300,0.301326416015625,-0.956298828125,-0.2580413818359375,-0.0796966552734375
1704370120179302400,0.311302490234375,-0.9572296142578125,-0.2513580322265625,-0.0669097900390625
1704370120189278500,0.321278564453125,-0.9680328369140625,-0.2459259033203125,-0.0532379150390625
1704370120199253200,0.331253173828125,-0.978424072265625,-0.2347259521484375,-0.0460205078125
1704370120209229600,0.3412294921875,-0.9814910888671875,-0.2201690673828125,-0.04364013671875
1704370120219205400,0.351205322265625,-0.9783935546875,-0.2099761962890625,-0.0421600341796875
1704370120229181200,0.36118115234375,-0.972900390625,-0.207672119140625,-0.036102294921875
1704370120239157500,0.371157470703125,-0.968475341796875,-0.2094573974609375,-0.0288238525390625
1704370120249133300,0.38113330078125,-0.963836669921875,-0.2118988037109375,-0.0250396728515625
1704370120259109400,0.391109375,-0.9636993408203125,-0.2102203369140625,-0.0286865234375
1704370120269085400,0.40108544921875,-0.9653167724609375,-0.2097320556640625,-0.0361785888671875
1704370120279061200,0.411061279296875,-0.972808837890625,-0.2114105224609375,-0.041961669921875
1704370120289037600,0.42103759765625,-0.9792938232421875,-0.2119903564453125,-0.0461578369140625
1704370120299013400,0.431013427734375,-0.9756011962890625,-0.2124481201171875,-0.0495147705078125
1704370120308989200,0.4409892578125,-0.964630126953125,-0.213226318359375,-0.052581787109375
1704370120318965500,0.450965576171875,-0.958160400390625,-0.2168121337890625,-0.055877685546875
1704370120328941300,0.46094140625,-0.9541778564453125,-0.2208404541015625,-0.05767822265625
1704370120338917400,0.47091748046875,-0.9526519775390625,-0.2230987548828125,-0.0621337890625
1704370120348893400,0.4808935546875,-0.9518890380859375,-0.2280426025390625,-0.0645599365234375
1704370120358869200,0.490869140625,-0.9555511474609375,-0.2352142333984375,-0.0662689208984375
1704370120368845600,0.500845458984375,-0.955902099609375,-0.239837646484375,-0.0673828125
1704370120378821400,0.5108212890625,-0.951446533203125,-0.240936279296875,-0.0674591064453125
1704370120388797200,0.520797119140625,-0.9446868896484375,-0.2396392822265625,-0.064483642578125
1704370120398773500,0.5307734375,-0.9418182373046875,-0.2397613525390625,-0.0617218017578125
1704370120408749300,0.540749267578125,-0.942779541015625,-0.2432708740234375,-0.0587921142578125
1704370120418725400,0.550725341796875,-0.946533203125,-0.2424468994140625,-0.057647705078125
1704370120428701400,0.560701416015625,-0.9517364501953125,-0.2377166748046875,-0.0578460693359375
1704370120438677200,0.57067724609375,-0.9589996337890625,-0.2381439208984375,-0.059814453125
1704370120448653600,0.580653564453125,-0.966064453125,-0.2398681640625,-0.061614990234375
1704370120458629400,0.59062939453125,-0.9683990478515625,-0.2440338134765625,-0.0655364990234375
1704370120468605200,0.600605224609375,-0.9686737060546875,-0.2486572265625,-0.072967529296875
1704370120478581500,0.61058154296875,-0.96942138671875,-0.255340576171875,-0.0779571533203125
1704370120488557300,0.620557373046875,-0.9714813232421875,-0.259765625,-0.08380126953125
1704370120498533400,0.630533447265625,-0.9772491455078125,-0.260833740234375,-0.08673095703125
1704370120508509400,0.640509521484375,-0.979949951171875,-0.2627716064453125,-0.0901031494140625
1704370120518485200,0.6504853515625,-0.9854736328125,-0.2637786865234375,-0.0895538330078125
1704370120528461600,0.660461669921875,-0.990753173828125,-0.2635345458984375,-0.087890625
1704370120538437400,0.670437255859375,-1.0001678466796875,-0.2610015869140625,-0.087982177734375
1704370120548413200,0.6804130859375,-1.01055908203125,-0.2574310302734375,-0.08770751953125
1704370120558389000,0.690388916015625,-1.0193939208984375,-0.2536773681640625,-0.0883331298828125
1704370120568365000,0.700364990234375,-1.0265350341796875,-0.250732421875,-0.0886993408203125
1704370120578341000,0.710341064453125,-1.0250244140625,-0.2510528564453125,-0.0850067138671875
1704370120588317000,0.72031689453125,-1.0180816650390625,-0.252655029296875,-0.0828704833984375
1704370120598293000,0.73029296875,-1.00787353515625,-0.2555084228515625,-0.0813140869140625
1704370120608269000,0.74026904296875,-0.996673583984375,-0.2599639892578125,-0.0771331787109375
1704370120618244900,0.750244873046875,-0.9850921630859375,-0.264007568359375,-0.0726776123046875
1704370120628221000,0.760220947265625,-0.977020263671875,-0.2716522216796875,-0.0677490234375
1704370120638197000,0.770197021484375,-0.966827392578125,-0.2784271240234375,-0.061187744140625
1704370120648171800,0.780171875,-0.957763671875,-0.2835235595703125,-0.054107666015625
1704370120658148000,0.790148193359375,-0.9477691650390625,-0.2888031005859375,-0.0452423095703125
1704370120668124000,0.8001240234375,-0.938812255859375,-0.298614501953125,-0.04144287109375
1704370120678100000,0.810099853515625,-0.9387054443359375,-0.3074188232421875,-0.0377197265625
1704370120688076000,0.820075927734375,-0.9459228515625,-0.3153228759765625,-0.035125732421875
1704370120698051800,0.8300517578125,-0.9555206298828125,-0.321319580078125,-0.035614013671875
1704370120708028200,0.840028076171875,-0.9638824462890625,-0.3271026611328125,-0.0328826904296875
1704370120718004000,0.85000390625,-0.9698638916015625,-0.3345489501953125,-0.0304107666015625
1704370120727979800,0.859979736328125,-0.974700927734375,-0.3444061279296875,-0.0309600830078125
1704370120737956000,0.8699560546875,-0.97198486328125,-0.35333251953125,-0.033447265625
1704370120747932000,0.879931884765625,-0.96539306640625,-0.3607635498046875,-0.0399322509765625
1704370120757908200,0.889908203125,-0.954559326171875,-0.368011474609375,-0.047332763671875
1704370120767884000,0.899884033203125,-0.94085693359375,-0.374114990234375,-0.04937744140625
1704370120777859800,0.90985986328125,-0.9319305419921875,-0.377716064453125,-0.0508270263671875
1704370120787836200,0.919836181640625,-0.9290771484375,-0.379241943359375,-0.0515594482421875
1704370120797812000,0.92981201171875,-0.9302825927734375,-0.379730224609375,-0.0508575439453125
1704370120807787800,0.939787841796875,-0.931915283203125,-0.3779144287109375,-0.0480194091796875
1704370120817764000,0.94976416015625,-0.93060302734375,-0.3766632080078125,-0.0444488525390625
1704370120827740000,0.959739990234375,-0.924163818359375,-0.3787994384765625,-0.042266845703125
1704370120837716200,0.96971630859375,-0.91534423828125,-0.3795928955078125,-0.04412841796875
1704370120847692000,0.979692138671875,-0.908538818359375,-0.379486083984375,-0.0448455810546875
1704370120857667800,0.989667724609375,-0.9056854248046875,-0.3777008056640625,-0.0447998046875
1704370120867644200,0.99964404296875,-0.908294677734375,-0.3725128173828125,-0.045623779296875
1704370120877620000,1.009619873046875,-0.9138336181640625,-0.3672027587890625,-0.0443115234375
1704370120887595800,1.019595703125,-0.91888427734375,-0.3583526611328125,-0.0405426025390625
1704370120897572000,1.029572021484375,-0.9248046875,-0.3471832275390625,-0.03582763671875
1704370120907548000,1.0395478515625,-0.93133544921875,-0.33544921875,-0.0288848876953125
1704370120917524200,1.049524169921875,-0.942413330078125,-0.3248138427734375,-0.0282440185546875
1704370120927500000,1.0595,-0.952484130859375,-0.317596435546875,-0.025482177734375
1704370120937475800,1.069475830078125,-0.957122802734375,-0.310943603515625,-0.025970458984375
1704370120947452200,1.0794521484375,-0.956329345703125,-0.3081817626953125,-0.0281219482421875
1704370120957428000,1.089427978515625,-0.949676513671875,-0.3083343505859375,-0.0272064208984375
1704370120967403800,1.09940380859375,-0.9364013671875,-0.3095703125,-0.0254669189453125
1704370120977380000,1.109380126953125,-0.9237213134765625,-0.315032958984375,-0.0213775634765625
1704370120987356000,1.11935595703125,-0.9134368896484375,-0.3186492919921875,-0.0182647705078125
1704370120997332200,1.129332275390625,-0.9029693603515625,-0.322235107421875,-0.016448974609375
1704370121007308000,1.13930810546875,-0.8959808349609375,-0.32806396484375,-0.0142364501953125
1704370121017283800,1.149283935546875,-0.895416259765625,-0.3328094482421875,-0.012420654296875
1704370121027260200,1.15926025390625,-0.9025726318359375,-0.338104248046875,-0.0072021484375
1704370121037236000,1.169236083984375,-0.9116363525390625,-0.3416595458984375,-0.00457763671875
1704370121047211800,1.179211669921875,-0.9239654541015625,-0.3430328369140625,-0.005340576171875
1704370121057188000,1.18918798828125,-0.9353790283203125,-0.345489501953125,-0.0065765380859375
1704370121067164000,1.199163818359375,-0.94384765625,-0.347320556640625,-0.0116424560546875
1704370121077140000,1.209139892578125,-0.9469451904296875,-0.3487091064453125,-0.0134735107421875
1704370121087116000,1.219115966796875,-0.9511871337890625,-0.3486328125,-0.01837158203125
1704370121097091800,1.229091796875,-0.96685791015625,-0.35009765625,-0.0240478515625
1704370121107068200,1.239068115234375,-0.9781646728515625,-0.344512939453125,-0.0307769775390625
1704370121117044000,1.2490439453125,-0.987060546875,-0.3354034423828125,-0.033416748046875
1704370121127019800,1.259019775390625,-0.9948883056640625,-0.329315185546875,-0.0302276611328125
1704370121136996000,1.26899609375,-0.9998321533203125,-0.32501220703125,-0.024261474609375
1704370121146972000,1.278971923828125,-0.9993743896484375,-0.3235931396484375,-0.0191497802734375
1704370121156948000,1.288947998046875,-0.9969940185546875,-0.325408935546875,-0.0143585205078125
1704370121166924000,1.298924072265625,-0.992034912109375,-0.3288726806640625,-0.0083160400390625
1704370121176899800,1.30889990234375,-0.9861907958984375,-0.333038330078125,-0.0062713623046875
1704370121186875100,1.318875244140625,-0.9782867431640625,-0.338348388671875,-0.0087127685546875
1704370121196851000,1.328850830078125,-0.9686737060546875,-0.3459625244140625,-0.0140228271484375
1704370121206827000,1.338826904296875,-0.957611083984375,-0.3519287109375,-0.020355224609375
1704370121216803000,1.348802978515625,-0.9486083984375,-0.3566741943359375,-0.024627685546875
1704370121226779000,1.35877880859375,-0.94464111328125,-0.359130859375,-0.02642822265625
1704370121236755000,1.3687548828125,-0.9420166015625,-0.3573455810546875,-0.0290679931640625
1704370121246731000,1.37873095703125,-0.9428558349609375,-0.3568115234375,-0.0307159423828125
1704370121256707000,1.38870703125,-0.946441650390625,-0.3599395751953125,-0.0289764404296875
1704370121266683100,1.39868310546875,-0.9464111328125,-0.3642425537109375,-0.027679443359375
1704370121276659000,1.408658935546875,-0.9451446533203125,-0.3703765869140625,-0.0268707275390625
1704370121286635000,1.418635009765625,-0.94195556640625,-0.3761749267578125,-0.0292510986328125
1704370121296611000,1.428611083984375,-0.935333251953125,-0.376617431640625,-0.0355377197265625
1704370121306587000,1.4385869140625,-0.92828369140625,-0.3812713623046875,-0.041778564453125
1704370121316563000,1.44856298828125,-0.925750732421875,-0.3886871337890625,-0.046142578125
1704370121326539000,1.4585390625,-0.9247589111328125,-0.394317626953125,-0.04931640625
1704370121336515000,1.46851513671875,-0.9226837158203125,-0.393829345703125,-0.0510406494140625
1704370121346491100,1.4784912109375,-0.9215087890625,-0.3888702392578125,-0.0522308349609375
1704370121356467000,1.488467041015625,-0.922607421875,-0.3874359130859375,-0.0478515625
1704370121366443000,1.498443115234375,-0.9217681884765625,-0.3827056884765625,-0.04388427734375
1704370121376419000,1.508419189453125,-0.9199676513671875,-0.3747406005859375,-0.0392913818359375
1704370121386395000,1.518394775390625,-0.920562744140625,-0.3681793212890625,-0.0334014892578125
1704370121396371000,1.528370849609375,-0.9226531982421875,-0.363616943359375,-0.02685546875
1704370121406347000,1.538346923828125,-0.9258880615234375,-0.3604888916015625,-0.0221099853515625
1704370121416323000,1.548322998046875,-0.9246063232421875,-0.3594970703125,-0.0200347900390625
1704370121426299100,1.558299072265625,-0.9174041748046875,-0.360565185546875,-0.0182952880859375
1704370121436275000,1.56827490234375,-0.9085540771484375,-0.3625335693359375,-0.018310546875
1704370121446251000,1.5782509765625,-0.899627685546875,-0.364013671875,-0.0217132568359375
1704370121456227000,1.58822705078125,-0.897186279296875,-0.366058349609375,-0.022247314453125
1704370121466203000,1.598202880859375,-0.89984130859375,-0.3667144775390625,-0.021575927734375
1704370121476179000,1.608178955078125,-0.9043121337890625,-0.366851806640625,-0.022735595703125
1704370121486155000,1.618155029296875,-0.9133758544921875,-0.3673248291015625,-0.01806640625
1704370121496130800,1.628130859375,-0.9178314208984375,-0.365478515625,-0.0150299072265625
1704370121506107100,1.638107177734375,-0.92559814453125,-0.3643646240234375,-0.0136260986328125
1704370121516083000,1.6480830078125,-0.9368133544921875,-0.3641510009765625,-0.0171051025390625
1704370121526059000,1.65805908203125,-0.9456939697265625,-0.3647918701171875,-0.0250701904296875
1704370121536035000,1.66803515625,-0.9530181884765625,-0.3680877685546875,-0.03289794921875
1704370121546011000,1.678010986328125,-0.960235595703125,-0.3711090087890625,-0.0416259765625
1704370121555986700,1.687986572265625,-0.96258544921875,-0.372528076171875,-0.0472259521484375
1704370121565962800,1.697962646484375,-0.9584808349609375,-0.371856689453125,-0.048126220703125
1704370121575938800,1.707938720703125,-0.9521026611328125,-0.370208740234375,-0.0441741943359375
1704370121585915000,1.717914794921875,-0.9460601806640625,-0.3685760498046875,-0.03948974609375
1704370121595890700,1.727890625,-0.9384307861328125,-0.368499755859375,-0.040191650390625
1704370121605866800,1.73786669921875,-0.92828369140625,-0.36956787109375,-0.041412353515625
1704370121615842800,1.7478427734375,-0.92041015625,-0.370330810546875,-0.037841796875
1704370121625818600,1.757818603515625,-0.92193603515625,-0.3710479736328125,-0.0321502685546875
1704370121635794700,1.767794677734375,-0.9373321533203125,-0.3716278076171875,-0.0265045166015625
1704370121645770800,1.777770751953125,-0.9482879638671875,-0.36700439453125,-0.0248260498046875
1704370121655746800,1.787746826171875,-0.9515228271484375,-0.3595428466796875,-0.0252685546875
1704370121665723000,1.797722900390625,-0.9564208984375,-0.3582000732421875,-0.026702880859375
1704370121675698700,1.80769873046875,-0.9614105224609375,-0.362335205078125,-0.0267791748046875
1704370121685674800,1.8176748046875,-0.9629058837890625,-0.363739013671875,-0.02947998046875
1704370121695650800,1.82765087890625,-0.9576263427734375,-0.357635498046875,-0.0404815673828125
1704370121705626600,1.837626708984375,-0.9508514404296875,-0.355987548828125,-0.05181884765625
1704370121715602700,1.847602783203125,-0.94952392578125,-0.354827880859375,-0.0514678955078125
1704370121725578800,1.857578857421875,-0.9441680908203125,-0.3513336181640625,-0.046630859375
1704370121735554800,1.867554931640625,-0.9364471435546875,-0.352752685546875,-0.0362548828125
1704370121745531000,1.87753076171875,-0.929901123046875,-0.355499267578125,-0.0220489501953125
1704370121755506700,1.887506591796875,-0.920623779296875,-0.354888916015625,-0.014068603515625
1704370121765482800,1.897482666015625,-0.911102294921875,-0.354888916015625,-0.0127716064453125
1704370121775458800,1.907458740234375,-0.903106689453125,-0.3576507568359375,-0.0095672607421875
1704370121785434600,1.9174345703125,-0.8923797607421875,-0.3615570068359375,-0.012664794921875
1704370121795410700,1.92741064453125,-0.8885498046875,-0.36297607421875,-0.0145111083984375
1704370121805386800,1.93738671875,-0.8974151611328125,-0.3739013671875,-0.01806640625
1704370121815362800,1.94736279296875,-0.9001312255859375,-0.3743133544921875,-0.0274505615234375
1704370121825339000,1.9573388671875,-0.905364990234375,-0.3658447265625,-0.034149169921875
1704370121835314000,1.96731396484375,-0.911834716796875,-0.362579345703125,-0.037841796875
1704370121845289700,1.977289794921875,-0.9240264892578125,-0.3653717041015625,-0.037841796875
1704370121855265800,1.987265869140625,-0.9394683837890625,-0.36590576171875,-0.0407867431640625
1704370121865241900,1.997241943359375,-0.9524993896484375,-0.3632659912109375,-0.0449981689453125
1704370121875217700,2.0072177734375,-0.9625396728515625,-0.3604583740234375,-0.0507354736328125
1704370121885193700,2.01719384765625,-0.966766357421875,-0.35858154296875,-0.0584259033203125
1704370121895169800,2.027169677734375,-0.9678955078125,-0.3587646484375,-0.065673828125
1704370121905145600,2.0371455078125,-0.9706878662109375,-0.36334228515625,-0.0668792724609375
1704370121915122000,2.047121826171875,-0.9720611572265625,-0.36614990234375,-0.065673828125
1704370121925097700,2.05709765625,-0.97113037109375,-0.3632049560546875,-0.0657501220703125
1704370121935073800,2.06707373046875,-0.963714599609375,-0.3552093505859375,-0.0631256103515625
1704370121945049900,2.0770498046875,-0.9568328857421875,-0.35089111328125,-0.0528717041015625
1704370121955025700,2.087025634765625,-0.958221435546875,-0.3522491455078125,-0.0413055419921875
1704370121965001700,2.097001708984375,-0.9639434814453125,-0.3546142578125,-0.0367279052734375
1704370121974977800,2.106977783203125,-0.9684295654296875,-0.353515625,-0.0387420654296875
1704370121984953600,2.11695361328125,-0.970245361328125,-0.34814453125,-0.04656982421875
1704370121994929700,2.1269296875,-0.9666900634765625,-0.34368896484375,-0.0518951416015625
1704370122004905700,2.13690576171875,-0.9620513916015625,-0.342376708984375,-0.053070068359375
1704370122014881800,2.1468818359375,-0.955841064453125,-0.3397674560546875,-0.053985595703125
1704370122024857900,2.15685791015625,-0.9512786865234375,-0.3366241455078125,-0.05426025390625
1704370122034833700,2.166833740234375,-0.9470977783203125,-0.33380126953125,-0.0517120361328125
1704370122044809700,2.176809814453125,-0.9475555419921875,-0.3310089111328125,-0.049530029296875
1704370122054785800,2.186785888671875,-0.948974609375,-0.33038330078125,-0.044342041015625
1704370122064761600,2.19676171875,-0.94891357421875,-0.3332977294921875,-0.0391693115234375
1704370122074737700,2.206737548828125,-0.9418792724609375,-0.3358917236328125,-0.0397796630859375
1704370122084713700,2.216713623046875,-0.9316558837890625,-0.33807373046875,-0.0453643798828125
1704370122094689800,2.226689697265625,-0.921630859375,-0.3422393798828125,-0.0466156005859375
1704370122104665900,2.236665771484375,-0.9143829345703125,-0.34393310546875,-0.0476226806640625
1704370122114641700,2.2466416015625,-0.914306640625,-0.3444976806640625,-0.0443572998046875
1704370122124617700,2.25661767578125,-0.9170684814453125,-0.3394622802734375,-0.0426483154296875
1704370122134593800,2.26659375,-0.9207000732421875,-0.3287200927734375,-0.0411834716796875
1704370122144569600,2.276569580078125,-0.92767333984375,-0.3205413818359375,-0.0351409912109375
1704370122154545700,2.286545654296875,-0.9414215087890625,-0.3158721923828125,-0.03436279296875
1704370122164521700,2.296521728515625,-0.954833984375,-0.315338134765625,-0.0374908447265625
1704370122174497800,2.306497802734375,-0.964630126953125,-0.315216064453125,-0.045379638671875
1704370122184473900,2.316473876953125,-0.9677734375,-0.31512451171875,-0.054351806640625
1704370122194449700,2.32644970703125,-0.963897705078125,-0.3169708251953125,-0.0611419677734375
1704370122204425700,2.33642578125,-0.960296630859375,-0.31976318359375,-0.068511962890625
1704370122214401800,2.34640185546875,-0.9571990966796875,-0.3249664306640625,-0.0752716064453125
1704370122224377600,2.356377685546875,-0.950927734375,-0.3266448974609375,-0.079132080078125
1704370122234353700,2.366353759765625,-0.943511962890625,-0.326995849609375,-0.0782623291015625
1704370122244329700,2.376329833984375,-0.9369049072265625,-0.32904052734375,-0.0739288330078125
1704370122254305800,2.386305908203125,-0.936126708984375,-0.3349761962890625,-0.0706939697265625
1704370122264281900,2.39628173828125,-0.9363250732421875,-0.3417205810546875,-0.0704803466796875
1704370122274257700,2.406257568359375,-0.9347686767578125,-0.347503662109375,-0.076019287109375
1704370122284233700,2.416233642578125,-0.9314117431640625,-0.3541107177734375,-0.0754547119140625
1704370122294209800,2.426209716796875,-0.930877685546875,-0.364410400390625,-0.072540283203125
1704370122304185600,2.436185546875,-0.9320831298828125,-0.3741607666015625,-0.071380615234375
1704370122314161700,2.44616162109375,-0.933380126953125,-0.3790740966796875,-0.0739593505859375
1704370122324137700,2.4561376953125,-0.9403076171875,-0.3812103271484375,-0.07977294921875
1704370122334113800,2.46611376953125,-0.9507293701171875,-0.3836212158203125,-0.084075927734375
1704370122344089900,2.47608984375,-0.9582672119140625,-0.382843017578125,-0.0863037109375
1704370122354065700,2.486065673828125,-0.9627685546875,-0.3812255859375,-0.08636474609375
1704370122364041700,2.496041748046875,-0.9669036865234375,-0.381256103515625,-0.0843048095703125
1704370122374017800,2.506017822265625,-0.9692230224609375,-0.382354736328125,-0.080657958984375
1704370122383993600,2.51599365234375,-0.9691619873046875,-0.3834686279296875,-0.075531005859375
1704370122393969700,2.5259697265625,-0.9670257568359375,-0.3816070556640625,-0.0687103271484375
1704370122403945700,2.53594580078125,-0.963043212890625,-0.3769378662109375,-0.0617828369140625
1704370122413921800,2.545921875,-0.96002197265625,-0.3724822998046875,-0.05548095703125
1704370122423897900,2.55589794921875,-0.961029052734375,-0.365020751953125,-0.051910400390625
1704370122433873700,2.565873779296875,-0.96258544921875,-0.358795166015625,-0.0487213134765625
1704370122443849700,2.575849609375,-0.963470458984375,-0.3533782958984375,-0.0452728271484375
1704370122453825800,2.58582568359375,-0.96002197265625,-0.350921630859375,-0.039154052734375
1704370122463801600,2.595801513671875,-0.949371337890625,-0.351104736328125,-0.0315093994140625
1704370122473777700,2.605777587890625,-0.94110107421875,-0.35260009765625,-0.0235595703125
1704370122483753700,2.615753662109375,-0.934661865234375,-0.355865478515625,-0.01971435546875
1704370122493729800,2.625729736328125,-0.9246826171875,-0.3563385009765625,-0.0212554931640625
1704370122503705900,2.635705810546875,-0.91912841796875,-0.3579864501953125,-0.0256195068359375
1704370122513681700,2.645681640625,-0.9188690185546875,-0.3608245849609375,-0.0298614501953125
1704370122523657700,2.65565771484375,-0.9231719970703125,-0.3602142333984375,-0.033660888671875
1704370122533633800,2.6656337890625,-0.92926025390625,-0.3575439453125,-0.0373687744140625
1704370122543609600,2.675609619140625,-0.9320220947265625,-0.3546142578125,-0.03875732421875
1704370122553586200,2.685586181640625,-0.9329071044921875,-0.35357666015625,-0.0379638671875
1704370122563562200,2.695562255859375,-0.933929443359375,-0.354522705078125,-0.0363922119140625
1704370122573538000,2.7055380859375,-0.9389190673828125,-0.354339599609375,-0.03643798828125
1704370122583514000,2.71551416015625,-0.9433135986328125,-0.35205078125,-0.040191650390625
1704370122593490200,2.725490234375,-0.945343017578125,-0.3473358154296875,-0.0438690185546875
1704370122603466200,2.73546630859375,-0.9426727294921875,-0.3441009521484375,-0.0514678955078125
1704370122613442300,2.7454423828125,-0.9370880126953125,-0.343994140625,-0.057098388671875
1704370122623418000,2.755418212890625,-0.929473876953125,-0.3462371826171875,-0.0567626953125
1704370122633394200,2.765394287109375,-0.9195709228515625,-0.3438873291015625,-0.0564117431640625
1704370122643370200,2.775370361328125,-0.9149322509765625,-0.3389892578125,-0.05450439453125
1704370122653346000,2.785345947265625,-0.9146881103515625,-0.3338623046875,-0.0505828857421875
1704370122663322000,2.795322021484375,-0.9194183349609375,-0.33258056640625,-0.048004150390625
1704370122673297200,2.805297119140625,-0.92352294921875,-0.333953857421875,-0.045928955078125
1704370122683273000,2.81527294921875,-0.9234161376953125,-0.3382110595703125,-0.045440673828125
1704370122693249300,2.825249267578125,-0.918701171875,-0.3462982177734375,-0.0456695556640625
1704370122703225000,2.83522509765625,-0.9102020263671875,-0.3526153564453125,-0.0500030517578125
1704370122713201200,2.845201171875,-0.9047088623046875,-0.3561248779296875,-0.05413818359375
1704370122723177200,2.85517724609375,-0.9041900634765625,-0.36053466796875,-0.0572052001953125
1704370122733153000,2.865153076171875,-0.9091033935546875,-0.364471435546875,-0.0577850341796875
1704370122743129300,2.87512939453125,-0.9188995361328125,-0.3689727783203125,-0.056854248046875
1704370122753105200,2.885105224609375,-0.9258575439453125,-0.37359619140625,-0.0561676025390625
1704370122763081000,2.8950810546875,-0.9201202392578125,-0.376068115234375,-0.058380126953125
1704370122773057300,2.905057373046875,-0.9106597900390625,-0.3786773681640625,-0.060882568359375
1704370122783033000,2.915033203125,-0.90643310546875,-0.3851470947265625,-0.0577850341796875
1704370122793009200,2.925009033203125,-0.9086456298828125,-0.3874664306640625,-0.0540313720703125
1704370122802985200,2.934985107421875,-0.9141693115234375,-0.3843841552734375,-0.0512847900390625
1704370122812961000,2.9449609375,-0.92510986328125,-0.382171630859375,-0.0476226806640625
1704370122822937300,2.954937255859375,-0.9400177001953125,-0.380584716796875,-0.0457000732421875
1704370122832913200,2.9649130859375,-0.954437255859375,-0.3788299560546875,-0.043975830078125
1704370122842889000,2.974888916015625,-0.96240234375,-0.3727264404296875,-0.042755126953125
1704370122852865300,2.984865234375,-0.965057373046875,-0.3681488037109375,-0.0438232421875
1704370122862841000,2.994841064453125,-0.961151123046875,-0.3650665283203125,-0.0431365966796875
1704370122872817200,3.004817138671875,-0.95654296875,-0.3644866943359375,-0.0437164306640625
1704370122882793200,3.014793212890625,-0.9468231201171875,-0.365447998046875,-0.0466461181640625
1704370122892769000,3.02476904296875,-0.933319091796875,-0.3678741455078125,-0.0498809814453125
1704370122902745300,3.034745361328125,-0.918731689453125,-0.3709716796875,-0.0517730712890625
1704370122912721200,3.04472119140625,-0.9047088623046875,-0.374542236328125,-0.05218505859375
1704370122922697000,3.054697021484375,-0.8907470703125,-0.3799591064453125,-0.05682373046875
1704370122932673300,3.06467333984375,-0.8813323974609375,-0.3849334716796875,-0.0621490478515625
1704370122942649000,3.074649169921875,-0.8768463134765625,-0.3892822265625,-0.0631256103515625
1704370122952625200,3.084625244140625,-0.8735809326171875,-0.3892822265625,-0.06182861328125
1704370122962601200,3.094601318359375,-0.874664306640625,-0.3875274658203125,-0.06024169921875
1704370122972577000,3.104576904296875,-0.8794403076171875,-0.388427734375,-0.058990478515625
1704370122982553300,3.11455322265625,-0.8839569091796875,-0.3929595947265625,-0.0594482421875
1704370122992529200,3.124529052734375,-0.8883056640625,-0.3965301513671875,-0.0624237060546875
1704370123002505000,3.1345048828125,-0.8875885009765625,-0.403228759765625,-0.0699310302734375
1704370123012481300,3.144481201171875,-0.8813018798828125,-0.4110107421875,-0.07763671875
1704370123022457000,3.15445703125,-0.8758544921875,-0.4170379638671875,-0.0853271484375
1704370123032433200,3.16443310546875,-0.8708038330078125,-0.4227142333984375,-0.090423583984375
1704370123042409200,3.1744091796875,-0.869903564453125,-0.4254302978515625,-0.0890045166015625
1704370123052385000,3.184385009765625,-0.867156982421875,-0.43389892578125,-0.0885162353515625
1704370123062361300,3.194361328125,-0.86474609375,-0.441009521484375,-0.0899505615234375
1704370123072337200,3.204337158203125,-0.8643035888671875,-0.4437255859375,-0.0868682861328125
1704370123082313000,3.21431298828125,-0.8640594482421875,-0.444549560546875,-0.083984375
1704370123092289300,3.224289306640625,-0.8646697998046875,-0.447021484375,-0.080047607421875
1704370123102265000,3.23426513671875,-0.8700714111328125,-0.450469970703125,-0.0742340087890625
1704370123112241200,3.2442412109375,-0.877197265625,-0.45220947265625,-0.069732666015625
1704370123122217200,3.25421728515625,-0.8868408203125,-0.45257568359375,-0.068023681640625
1704370123132193000,3.264193115234375,-0.8951263427734375,-0.452880859375,-0.0707550048828125
1704370123142169300,3.27416943359375,-0.8990631103515625,-0.4556732177734375,-0.0705413818359375
1704370123152145200,3.284145263671875,-0.899749755859375,-0.459930419921875,-0.066986083984375
1704370123162121000,3.294120849609375,-0.9000701904296875,-0.4629974365234375,-0.062713623046875
1704370123172097300,3.30409716796875,-0.8984375,-0.4650115966796875,-0.060791015625
1704370123182073000,3.314072998046875,-0.8938751220703125,-0.4643096923828125,-0.0644683837890625
1704370123192049200,3.324049072265625,-0.8885040283203125,-0.4690399169921875,-0.0670166015625
1704370123202025200,3.334025146484375,-0.888580322265625,-0.4769134521484375,-0.0656585693359375
1704370123212001000,3.3440009765625,-0.890625,-0.4798126220703125,-0.061187744140625
1704370123221977300,3.353977294921875,-0.8932342529296875,-0.47979736328125,-0.0572662353515625
1704370123231953200,3.363953125,-0.8963470458984375,-0.47747802734375,-0.0556793212890625
1704370123241929000,3.373928955078125,-0.90130615234375,-0.477142333984375,-0.0511322021484375
1704370123251905300,3.3839052734375,-0.90576171875,-0.476348876953125,-0.0430908203125
1704370123261881000,3.393881103515625,-0.9123382568359375,-0.4730072021484375,-0.035736083984375
1704370123271857200,3.403857177734375,-0.9190826416015625,-0.46905517578125,-0.0236053466796875
1704370123281833200,3.413833251953125,-0.926666259765625,-0.4647369384765625,-0.009735107421875
1704370123291809000,3.42380908203125,-0.9386749267578125,-0.4605865478515625,0.0015106201171875
1704370123301785300,3.433785400390625,-0.952667236328125,-0.4593353271484375,0.0099334716796875
1704370123311761200,3.44376123046875,-0.966644287109375,-0.4587249755859375,0.0153350830078125
1704370123321737000,3.453737060546875,-0.9803619384765625,-0.4607696533203125,0.0192108154296875
1704370123331713300,3.46371337890625,-0.9900665283203125,-0.4616851806640625,0.0232086181640625
1704370123341689000,3.473689208984375,-0.9972686767578125,-0.460906982421875,0.02496337890625
1704370123351665200,3.4836650390625,-1.00299072265625,-0.4636077880859375,0.031768798828125
1704370123361641200,3.49364111328125,-1.0070037841796875,-0.4737701416015625,0.0455474853515625
1704370123371617000,3.503616943359375,-1.0038604736328125,-0.4828948974609375,0.05780029296875
1704370123381593300,3.51359326171875,-0.990020751953125,-0.4803009033203125,0.0549163818359375
1704370123391569200,3.523569091796875,-0.97894287109375,-0.4663238525390625,0.0412139892578125
1704370123401545000,3.533544921875,-0.9899749755859375,-0.4517364501953125,0.030242919921875
1704370123411521300,3.543521240234375,-1.01702880859375,-0.4473419189453125,0.0313873291015625
1704370123421497000,3.5534970703125,-1.043487548828125,-0.455322265625,0.05059814453125
1704370123431473200,3.56347314453125,-1.0464935302734375,-0.4652557373046875,0.0772552490234375
1704370123441449200,3.57344921875,-1.0200042724609375,-0.4596405029296875,0.087249755859375
1704370123451425000,3.583425048828125,-0.989501953125,-0.4350433349609375,0.0682830810546875
1704370123461401300,3.5934013671875,-0.9787445068359375,-0.4007415771484375,0.029327392578125
1704370123471377200,3.603377197265625,-0.994659423828125,-0.3664093017578125,-0.010040283203125
1704370123481353000,3.61335302734375,-1.0318450927734375,-0.3369293212890625,-0.03375244140625
1704370123491329300,3.623329345703125,-1.0777435302734375,-0.306976318359375,-0.0411224365234375
1704370123501305000,3.63330517578125,-1.11944580078125,-0.2754058837890625,-0.0361328125
1704370123511281200,3.64328125,-1.1585845947265625,-0.2486724853515625,-0.01068115234375
1704370123521257200,3.65325732421875,-1.1763153076171875,-0.2282257080078125,0.024658203125
1704370123531233000,3.66323291015625,-1.165679931640625,-0.2124786376953125,0.063079833984375
1704370123541209300,3.673209228515625,-1.129913330078125,-0.2013092041015625,0.094696044921875
1704370123551185200,3.68318505859375,-1.0814361572265625,-0.20025634765625,0.11407470703125
1704370123561160400,3.693160400390625,-1.032196044921875,-0.2124481201171875,0.120452880859375
1704370123571136800,3.70313671875,-0.9892578125,-0.2357330322265625,0.1175994873046875
1704370123581112600,3.713112548828125,-0.9558868408203125,-0.2567291259765625,0.111358642578125
1704370123591088600,3.723088623046875,-0.9338836669921875,-0.269500732421875,0.09832763671875
1704370123601064700,3.733064697265625,-0.9219970703125,-0.2707977294921875,0.0800933837890625
1704370123611040500,3.74304052734375,-0.927093505859375,-0.2669677734375,0.062896728515625
1704370123621016600,3.7530166015625,-0.9502105712890625,-0.2633819580078125,0.052764892578125
1704370123630992600,3.76299267578125,-0.970611572265625,-0.26202392578125,0.04766845703125
1704370123640968400,3.772968505859375,-0.978973388671875,-0.2635650634765625,0.044158935546875
1704370123650944800,3.78294482421875,-0.96612548828125,-0.2743072509765625,0.0460052490234375
1704370123660920600,3.792920654296875,-0.937744140625,-0.294647216796875,0.0520477294921875
1704370123670896600,3.802896728515625,-0.9008636474609375,-0.3166961669921875,0.061614990234375
1704370123680872700,3.812872802734375,-0.8648529052734375,-0.3288116455078125,0.0647735595703125
1704370123690848500,3.8228486328125,-0.8310699462890625,-0.33001708984375,0.060089111328125
1704370123700824600,3.832824462890625,-0.8044891357421875,-0.32806396484375,0.0545501708984375
1704370123710800600,3.842800537109375,-0.786468505859375,-0.3278045654296875,0.04791259765625
1704370123720776400,3.8527763671875,-0.7861785888671875,-0.3272705078125,0.044586181640625
1704370123730752800,3.862752685546875,-0.7996826171875,-0.3190765380859375,0.0453643798828125
1704370123740728600,3.872728515625,-0.820404052734375,-0.3065185546875,0.0505523681640625
1704370123750704600,3.88270458984375,-0.8404998779296875,-0.296844482421875,0.0595550537109375
1704370123760680700,3.8926806640625,-0.855926513671875,-0.297271728515625,0.0675048828125
1704370123770656500,3.902656494140625,-0.8661346435546875,-0.3102569580078125,0.0769500732421875
1704370123780632600,3.912632568359375,-0.866363525390625,-0.328338623046875,0.0831756591796875
1704370123790608600,3.922608642578125,-0.8574981689453125,-0.3416900634765625,0.0792999267578125
1704370123800584400,3.93258447265625,-0.8494415283203125,-0.3517913818359375,0.069488525390625
1704370123810560800,3.942560791015625,-0.843048095703125,-0.36077880859375,0.057525634765625
1704370123820536600,3.95253662109375,-0.838836669921875,-0.369049072265625,0.042449951171875
1704370123830512600,3.9625126953125,-0.83599853515625,-0.37890625,0.0257415771484375
1704370123840488700,3.97248876953125,-0.8382568359375,-0.3900909423828125,0.016387939453125
1704370123850464500,3.982464599609375,-0.84130859375,-0.399871826171875,0.012298583984375
1704370123860440800,3.99244091796875,-0.8435211181640625,-0.4046630859375,0.0116424560546875
1704370123870416600,4.002416748046875,-0.8452301025390625,-0.407073974609375,0.011810302734375
1704370123880392400,4.012392333984375,-0.848480224609375,-0.410980224609375,0.0094451904296875
1704370123890368800,4.02236865234375,-0.8502655029296875,-0.415985107421875,0.0083465576171875
1704370123900344600,4.032344482421875,-0.8486175537109375,-0.420440673828125,0.0061187744140625
1704370123910320600,4.042320556640625,-0.8492889404296875,-0.4230499267578125,0.0068817138671875
1704370123920296700,4.052296630859375,-0.84991455078125,-0.424224853515625,0.008941650390625
1704370123930272500,4.0622724609375,-0.8536224365234375,-0.423095703125,0.0108184814453125
1704370123940248800,4.072248779296875,-0.8626251220703125,-0.4237518310546875,0.0107879638671875
1704370123950224600,4.082224609375,-0.8723907470703125,-0.4263916015625,0.0086669921875
1704370123960200400,4.092200439453125,-0.88055419921875,-0.4306640625,0.00750732421875
1704370123970176800,4.1021767578125,-0.88836669921875,-0.4340972900390625,0.0052642822265625
1704370123980152600,4.112152587890625,-0.8948211669921875,-0.438720703125,-0.000579833984375
1704370123990128600,4.122128662109375,-0.9005279541015625,-0.4441375732421875,-0.0051116943359375
1704370124000104700,4.132104736328125,-0.9059906005859375,-0.4514923095703125,-0.0076751708984375
1704370124010080500,4.14208056640625,-0.9086151123046875,-0.461944580078125,-0.0077362060546875
1704370124020056800,4.152056884765625,-0.9041900634765625,-0.4681396484375,-0.012176513671875
1704370124030032600,4.16203271484375,-0.8964385986328125,-0.4719390869140625,-0.0193634033203125
1704370124040008400,4.172008544921875,-0.8913726806640625,-0.473785400390625,-0.0229644775390625
1704370124049984800,4.18198486328125,-0.8919830322265625,-0.47259521484375,-0.0294647216796875
1704370124059960600,4.191960693359375,-0.8956298828125,-0.472747802734375,-0.0384979248046875
1704370124069936600,4.2019365234375,-0.91070556640625,-0.4674835205078125,-0.0429840087890625
1704370124079912700,4.21191259765625,-0.9327239990234375,-0.4591064453125,-0.045166015625
1704370124089888500,4.221888427734375,-0.961761474609375,-0.4517669677734375,-0.0393829345703125
1704370124099864800,4.23186474609375,-0.9989166259765625,-0.4478759765625,-0.0277252197265625
1704370124109840600,4.241840576171875,-1.035736083984375,-0.4506378173828125,-0.013397216796875
1704370124119816400,4.25181640625,-1.06341552734375,-0.4647216796875,-0.0033416748046875
1704370124129792800,4.261792724609375,-1.074310302734375,-0.4852447509765625,-0.002227783203125
1704370124139767600,4.271767578125,-1.065277099609375,-0.4989013671875,-0.0200347900390625
1704370124149744400,4.281744384765625,-1.052825927734375,-0.4972991943359375,-0.056976318359375
1704370124159719700,4.2917197265625,-1.0586700439453125,-0.49005126953125,-0.0919189453125
1704370124169696500,4.301696533203125,-1.08038330078125,-0.48004150390625,-0.117950439453125
1704370124179672800,4.3116728515625,-1.1140899658203125,-0.4649658203125,-0.1405792236328125
1704370124189647600,4.321647705078125,-1.1546630859375,-0.436492919921875,-0.15509033203125
1704370124199624400,4.33162451171875,-1.1871337890625,-0.3934173583984375,-0.1609649658203125
1704370124209600800,4.341600830078125,-1.2132568359375,-0.3449859619140625,-0.156768798828125
1704370124219575600,4.351575439453125,-1.2352294921875,-0.30023193359375,-0.142333984375
1704370124229551600,4.361551513671875,-1.2411041259765625,-0.26153564453125,-0.1243438720703125
1704370124239528700,4.37152880859375,-1.2318878173828125,-0.23162841796875,-0.110565185546875
1704370124249503500,4.38150341796875,-1.2111663818359375,-0.2152862548828125,-0.0924530029296875
1704370124259479600,4.3914794921875,-1.1757659912109375,-0.214263916015625,-0.0845794677734375
1704370124269455600,4.40145556640625,-1.1297760009765625,-0.2233428955078125,-0.0889434814453125
1704370124279431700,4.411431640625,-1.0738677978515625,-0.2459716796875,-0.1087799072265625
1704370124289407700,4.42140771484375,-1.0128631591796875,-0.2721405029296875,-0.1430816650390625
1704370124299383600,4.431383544921875,-0.9537506103515625,-0.297698974609375,-0.178680419921875
1704370124309359600,4.441359619140625,-0.9013214111328125,-0.3194427490234375,-0.2156219482421875
1704370124319335700,4.451335693359375,-0.8568115234375,-0.33697509765625,-0.2432098388671875
1704370124329311500,4.4613115234375,-0.8195953369140625,-0.3494720458984375,-0.258544921875
1704370124339287600,4.47128759765625,-0.7886810302734375,-0.3549041748046875,-0.25921630859375
1704370124349263600,4.481263671875,-0.7697296142578125,-0.3519744873046875,-0.2411651611328125
1704370124359239700,4.49123974609375,-0.7698822021484375,-0.341522216796875,-0.20745849609375
1704370124369215700,4.5012158203125,-0.78509521484375,-0.322967529296875,-0.1656341552734375
1704370124379191600,4.511191650390625,-0.802154541015625,-0.3029632568359375,-0.118621826171875
1704370124389167600,4.521167724609375,-0.8150787353515625,-0.2874603271484375,-0.0733489990234375
1704370124399143700,4.531143798828125,-0.817474365234375,-0.279876708984375,-0.0319061279296875
1704370124409119500,4.541119384765625,-0.8120269775390625,-0.2802276611328125,-0.0019683837890625
1704370124419095600,4.551095458984375,-0.806365966796875,-0.2877349853515625,0.0147705078125
1704370124429071600,4.561071533203125,-0.7959442138671875,-0.296539306640625,0.0172271728515625
1704370124439047700,4.571047607421875,-0.7863311767578125,-0.3045501708984375,0.01129150390625
1704370124449023700,4.581023681640625,-0.777862548828125,-0.3126068115234375,-0.001953125
1704370124458999600,4.59099951171875,-0.775390625,-0.32733154296875,-0.01458740234375
1704370124468975600,4.6009755859375,-0.7744293212890625,-0.34381103515625,-0.021148681640625
1704370124478951700,4.61095166015625,-0.7745819091796875,-0.3568878173828125,-0.0250091552734375
1704370124488927500,4.620927490234375,-0.7791290283203125,-0.3667755126953125,-0.0255279541015625
1704370124498903600,4.630903564453125,-0.780059814453125,-0.3732452392578125,-0.02508544921875
1704370124508879600,4.640879638671875,-0.7776947021484375,-0.3756561279296875,-0.023223876953125
1704370124518855700,4.650855712890625,-0.776763916015625,-0.3787994384765625,-0.02252197265625
1704370124528831700,4.660831787109375,-0.7857208251953125,-0.3843994140625,-0.024810791015625
1704370124538807600,4.6708076171875,-0.797698974609375,-0.3894195556640625,-0.02679443359375
1704370124548783600,4.68078369140625,-0.8087310791015625,-0.3872222900390625,-0.033905029296875
1704370124558760200,4.69076025390625,-0.8204345703125,-0.3863067626953125,-0.0415496826171875
1704370124568736300,4.700736328125,-0.8291778564453125,-0.3886260986328125,-0.0475616455078125
1704370124578712300,4.71071240234375,-0.83984375,-0.39544677734375,-0.0562744140625
1704370124588688100,4.720688232421875,-0.8499603271484375,-0.4035797119140625,-0.0647430419921875
1704370124598664200,4.730664306640625,-0.8581390380859375,-0.41229248046875,-0.069244384765625
1704370124608640300,4.74064013671875,-0.86480712890625,-0.4210052490234375,-0.075592041015625
1704370124618616300,4.7506162109375,-0.8724822998046875,-0.432525634765625,-0.0806732177734375
1704370124628592000,4.760592041015625,-0.8776702880859375,-0.4415283203125,-0.086456298828125
1704370124638568200,4.770568115234375,-0.880828857421875,-0.450775146484375,-0.092315673828125
1704370124648544300,4.780544189453125,-0.884307861328125,-0.4625701904296875,-0.091217041015625
1704370124658520300,4.790520263671875,-0.8863372802734375,-0.4717864990234375,-0.08056640625
1704370124668496100,4.80049609375,-0.88690185546875,-0.4787139892578125,-0.0708160400390625
1704370124678472200,4.81047216796875,-0.8866119384765625,-0.486053466796875,-0.06085205078125
1704370124688448300,4.8204482421875,-0.8923492431640625,-0.4905853271484375,-0.0451202392578125
1704370124698424300,4.83042431640625,-0.901275634765625,-0.4964752197265625,-0.030548095703125
1704370124708400000,4.840400146484375,-0.9087982177734375,-0.50274658203125,-0.0194549560546875
1704370124718376200,4.850376220703125,-0.91180419921875,-0.5101318359375,-0.0149993896484375
1704370124728352300,4.860352294921875,-0.915496826171875,-0.517333984375,-0.0139617919921875
1704370124738328300,4.870328369140625,-0.923187255859375,-0.5234375,-0.016632080078125
1704370124748304100,4.88030419921875,-0.9351348876953125,-0.523193359375,-0.0248870849609375
1704370124758280200,4.8902802734375,-0.948577880859375,-0.5119171142578125,-0.0416412353515625
1704370124768256300,4.90025634765625,-0.9665069580078125,-0.49261474609375,-0.0546417236328125
1704370124778232300,4.910232421875,-0.9944915771484375,-0.4717559814453125,-0.0579071044921875
1704370124788208000,4.9202080078125,-1.035491943359375,-0.4625396728515625,-0.04278564453125
1704370124798184200,4.93018408203125,-1.0891571044921875,-0.4722442626953125,0.002410888671875
1704370124808160300,4.94016015625,-1.1256256103515625,-0.4994354248046875,0.0600433349609375
1704370124818136300,4.95013623046875,-1.1240081787109375,-0.5263519287109375,0.100494384765625
1704370124828112100,4.960112060546875,-1.0866851806640625,-0.5413818359375,0.112701416015625
1704370124838088200,4.970088134765625,-1.0393218994140625,-0.5513458251953125,0.1031341552734375
1704370124848064300,4.980064208984375,-1.0092926025390625,-0.5597991943359375,0.08087158203125
1704370124858040300,4.990040283203125,-0.9983062744140625,-0.5462188720703125,0.042877197265625
1704370124868016000,5.00001611328125,-1.008575439453125,-0.5157623291015625,-0.0000762939453125
1704370124877992200,5.0099921875,-1.050048828125,-0.4822540283203125,-0.02789306640625
1704370124887968300,5.01996826171875,-1.1020050048828125,-0.4484405517578125,-0.0355377197265625
1704370124897944300,5.0299443359375,-1.1371002197265625,-0.4127960205078125,-0.024749755859375
1704370124907920100,5.039920166015625,-1.1563873291015625,-0.380126953125,0.0013580322265625
1704370124917896200,5.049896240234375,-1.1548614501953125,-0.3530120849609375,0.0389404296875
1704370124927872300,5.059872314453125,-1.1366424560546875,-0.33587646484375,0.0785064697265625
1704370124937848300,5.069848388671875,-1.1070556640625,-0.323089599609375,0.1033477783203125
1704370124947824000,5.07982421875,-1.0723876953125,-0.314849853515625,0.1088409423828125
1704370124957800200,5.08980029296875,-1.034393310546875,-0.311065673828125,0.099334716796875
1704370124967776300,5.0997763671875,-0.9979095458984375,-0.3069610595703125,0.073699951171875
1704370124977752300,5.10975244140625,-0.9764251708984375,-0.3007049560546875,0.0443572998046875
1704370124987728400,5.119728271484375,-0.9709625244140625,-0.2922515869140625,0.0128326416015625
1704370124997704200,5.1297041015625,-0.9754486083984375,-0.2839813232421875,-0.008544921875
1704370125007680300,5.13968017578125,-0.98162841796875,-0.2752227783203125,-0.01824951171875
1704370125017656300,5.14965625,-0.98468017578125,-0.266265869140625,-0.017425537109375
1704370125027632000,5.159632080078125,-0.9843902587890625,-0.2620086669921875,-0.008819580078125
1704370125037608200,5.169608154296875,-0.978179931640625,-0.2587890625,0.0021820068359375
1704370125047584300,5.179584228515625,-0.9630126953125,-0.2584381103515625,0.013092041015625
1704370125057560300,5.189560302734375,-0.9439697265625,-0.2635040283203125,0.020538330078125
1704370125067536400,5.199536376953125,-0.9145965576171875,-0.272064208984375,0.0200347900390625
1704370125077512200,5.20951220703125,-0.87860107421875,-0.2840728759765625,0.0161895751953125
1704370125087488300,5.21948828125,-0.8403778076171875,-0.299102783203125,0.0126800537109375
1704370125097464300,5.22946435546875,-0.80218505859375,-0.3151702880859375,0.0107879638671875
1704370125107440000,5.239440185546875,-0.767730712890625,-0.3274993896484375,0.0063934326171875
1704370125117416200,5.249416259765625,-0.7338409423828125,-0.3382110595703125,0.00439453125
1704370125127392300,5.259392333984375,-0.70947265625,-0.3485260009765625,0.0032196044921875
1704370125137368300,5.269368408203125,-0.692596435546875,-0.355438232421875,0.00445556640625
1704370125147344400,5.279344482421875,-0.6855010986328125,-0.35675048828125,0.0057373046875
1704370125157320200,5.2893203125,-0.69000244140625,-0.356689453125,0.0049896240234375
1704370125167296300,5.299296142578125,-0.7018890380859375,-0.357421875,0.003570556640625
1704370125177272300,5.309272216796875,-0.7145233154296875,-0.356689453125,0.0030059814453125
1704370125187248000,5.319248046875,-0.7298736572265625,-0.357147216796875,0.0018157958984375
1704370125197224200,5.32922412109375,-0.7465667724609375,-0.360076904296875,0.004180908203125
1704370125207200300,5.3392001953125,-0.7635498046875,-0.3605194091796875,0.005096435546875
1704370125217176300,5.34917626953125,-0.7750701904296875,-0.36053466796875,0.0101165771484375
1704370125227152400,5.35915234375,-0.783477783203125,-0.3614349365234375,0.0196533203125
1704370125237128200,5.369128173828125,-0.7898712158203125,-0.3668975830078125,0.0275726318359375
1704370125247104300,5.379104248046875,-0.7939453125,-0.378448486328125,0.0342254638671875
1704370125257080300,5.389080322265625,-0.7981414794921875,-0.3978118896484375,0.041473388671875
1704370125267056000,5.39905615234375,-0.7999267578125,-0.4174957275390625,0.046112060546875
1704370125277032200,5.4090322265625,-0.7993011474609375,-0.4331512451171875,0.043212890625
1704370125287008300,5.41900830078125,-0.79931640625,-0.4453887939453125,0.0361175537109375
1704370125296984300,5.428984375,-0.8012847900390625,-0.454925537109375,0.0242156982421875
1704370125306960400,5.43896044921875,-0.8124847412109375,-0.4648895263671875,0.0129852294921875
1704370125316936200,5.448936279296875,-0.829254150390625,-0.4735565185546875,0.0052337646484375
1704370125326912300,5.458912353515625,-0.8478546142578125,-0.4777679443359375,-0.0028076171875
1704370125336888300,5.468888427734375,-0.8648834228515625,-0.477996826171875,-0.016632080078125
1704370125346864000,5.478864013671875,-0.88726806640625,-0.4729461669921875,-0.0279541015625
1704370125356840200,5.488840087890625,-0.9173583984375,-0.4643096923828125,-0.04083251953125
1704370125366816300,5.498816162109375,-0.953216552734375,-0.4532318115234375,-0.055511474609375
1704370125376792300,5.508792236328125,-0.99005126953125,-0.4387969970703125,-0.0650482177734375
1704370125386768400,5.518768310546875,-1.0292510986328125,-0.430633544921875,-0.0673675537109375
1704370125396744200,5.528744140625,-1.067626953125,-0.4302520751953125,-0.0599517822265625
1704370125406720300,5.53872021484375,-1.099517822265625,-0.435272216796875,-0.0508575439453125
1704370125416696300,5.5486962890625,-1.1244964599609375,-0.44598388671875,-0.0392913818359375
1704370125426672000,5.558672119140625,-1.142120361328125,-0.46600341796875,-0.0289764404296875
1704370125436648200,5.568648193359375,-1.147796630859375,-0.490509033203125,-0.0235137939453125
1704370125446624300,5.578624267578125,-1.1362762451171875,-0.510589599609375,-0.030364990234375
1704370125456600000,5.58860009765625,-1.110687255859375,-0.519775390625,-0.054962158203125
1704370125466576400,5.598576416015625,-1.09295654296875,-0.5159149169921875,-0.0860748291015625
1704370125476552200,5.60855224609375,-1.0836029052734375,-0.5082550048828125,-0.119873046875
1704370125486528300,5.6185283203125,-1.09063720703125,-0.495758056640625,-0.1440582275390625
1704370125496504300,5.62850439453125,-1.108551025390625,-0.4783782958984375,-0.1585235595703125
1704370125506480000,5.638480224609375,-1.127899169921875,-0.449798583984375,-0.1646270751953125
1704370125516457200,5.648457275390625,-1.141448974609375,-0.4130096435546875,-0.1623992919921875
1704370125526432300,5.658432373046875,-1.147918701171875,-0.3724822998046875,-0.1529083251953125
1704370125536408000,5.668407958984375,-1.149444580078125,-0.333251953125,-0.137420654296875
1704370125546384400,5.67838427734375,-1.144622802734375,-0.3055419921875,-0.1199188232421875
1704370125556359400,5.688359375,-1.127044677734375,-0.29052734375,-0.1072998046875
1704370125566335700,5.698335693359375,-1.0911102294921875,-0.2893218994140625,-0.098968505859375
1704370125576311600,5.7083115234375,-1.046630859375,-0.3005828857421875,-0.10174560546875
1704370125586287600,5.71828759765625,-1.0025177001953125,-0.3187713623046875,-0.1164398193359375
1704370125596263700,5.728263671875,-0.96295166015625,-0.33447265625,-0.1388702392578125
1704370125606239500,5.738239501953125,-0.932830810546875,-0.347564697265625,-0.16424560546875
1704370125616216600,5.748216552734375,-0.9107208251953125,-0.35595703125,-0.189422607421875
1704370125626191600,5.758191650390625,-0.9004669189453125,-0.3620758056640625,-0.211334228515625
1704370125636167400,5.76816748046875,-0.9021759033203125,-0.364288330078125,-0.22564697265625
1704370125646144500,5.77814453125,-0.905975341796875,-0.360076904296875,-0.234130859375
1704370125656120600,5.78812060546875,-0.9109344482421875,-0.3487548828125,-0.2374114990234375
1704370125666096600,5.7980966796875,-0.9140777587890625,-0.33782958984375,-0.2325897216796875
1704370125676072700,5.80807275390625,-0.9172210693359375,-0.3329010009765625,-0.2133941650390625
1704370125686047500,5.818047607421875,-0.919158935546875,-0.3284454345703125,-0.1851654052734375
1704370125696023800,5.82802392578125,-0.9136199951171875,-0.3241729736328125,-0.156402587890625
1704370125705999600,5.83799951171875,-0.9017333984375,-0.3199462890625,-0.13189697265625
1704370125715976700,5.847976806640625,-0.888580322265625,-0.3170166015625,-0.111541748046875
1704370125725952500,5.857952392578125,-0.871185302734375,-0.31787109375,-0.0959014892578125
1704370125735928600,5.867928466796875,-0.85186767578125,-0.32489013671875,-0.0828704833984375
1704370125745904600,5.877904541015625,-0.8321380615234375,-0.3329925537109375,-0.070281982421875
1704370125755880700,5.887880615234375,-0.81011962890625,-0.3425140380859375,-0.059844970703125
1704370125765855500,5.89785546875,-0.78857421875,-0.3539581298828125,-0.0525360107421875
1704370125775831800,5.907831787109375,-0.7637939453125,-0.3626708984375,-0.0521697998046875
1704370125785808600,5.91780859375,-0.7445831298828125,-0.374298095703125,-0.054718017578125
1704370125795784700,5.92778466796875,-0.734893798828125,-0.3876953125,-0.055389404296875
1704370125805760500,5.937760498046875,-0.72412109375,-0.3972015380859375,-0.0560455322265625
1704370125815736600,5.947736572265625,-0.7160797119140625,-0.40252685546875,-0.0556793212890625
1704370125825712600,5.957712646484375,-0.709991455078125,-0.4079742431640625,-0.0521697998046875
1704370125835688700,5.967688720703125,-0.7081298828125,-0.41790771484375,-0.0491790771484375
1704370125845664500,5.97766455078125,-0.7087249755859375,-0.43011474609375,-0.049041748046875
1704370125855640600,5.987640625,-0.7099456787109375,-0.4394683837890625,-0.0517730712890625
1704370125865616600,5.99761669921875,-0.7174072265625,-0.444091796875,-0.058624267578125
1704370125875592700,6.0075927734375,-0.7304229736328125,-0.445159912109375,-0.06317138671875
1704370125885568500,6.017568603515625,-0.74859619140625,-0.4412689208984375,-0.0682220458984375
1704370125895544600,6.027544677734375,-0.7747650146484375,-0.4375,-0.0713958740234375
1704370125905520600,6.037520751953125,-0.8018035888671875,-0.43524169921875,-0.0720367431640625
1704370125915496700,6.04749658203125,-0.826629638671875,-0.4337921142578125,-0.072723388671875
1704370125925472500,6.057472412109375,-0.849212646484375,-0.4351348876953125,-0.0769500732421875
1704370125935448600,6.067448486328125,-0.8722686767578125,-0.4427032470703125,-0.084014892578125
1704370125945424600,6.077424560546875,-0.8827667236328125,-0.4539947509765625,-0.086090087890625
1704370125955400700,6.087400634765625,-0.8811187744140625,-0.4644775390625,-0.09033203125
1704370125965376500,6.09737646484375,-0.8699493408203125,-0.4774322509765625,-0.0910186767578125
1704370125975352600,6.1073525390625,-0.85693359375,-0.4950103759765625,-0.0823516845703125
1704370125985328600,6.11732861328125,-0.845794677734375,-0.5087738037109375,-0.0734405517578125
1704370125995304700,6.1273046875,-0.8376922607421875,-0.51788330078125,-0.0654144287109375
1704370126005280500,6.137280517578125,-0.8343505859375,-0.5271453857421875,-0.05859375
1704370126015256600,6.147256591796875,-0.837615966796875,-0.5371551513671875,-0.050628662109375
1704370126025232600,6.157232666015625,-0.8441314697265625,-0.5466461181640625,-0.0444183349609375
1704370126035208700,6.167208740234375,-0.85565185546875,-0.552215576171875,-0.040557861328125
1704370126045184500,6.1771845703125,-0.8701934814453125,-0.5493927001953125,-0.0401153564453125
1704370126055160600,6.18716064453125,-0.8799896240234375,-0.5355682373046875,-0.04534912109375
1704370126065136600,6.19713671875,-0.889129638671875,-0.516998291015625,-0.0545196533203125
1704370126075112700,6.20711279296875,-0.90283203125,-0.4970550537109375,-0.0654449462890625
1704370126085088800,6.2170888671875,-0.928680419921875,-0.4810333251953125,-0.073822021484375
1704370126095064600,6.227064697265625,-0.96087646484375,-0.4730987548828125,-0.071746826171875
1704370126105040600,6.23704052734375,-0.99798583984375,-0.4808502197265625,-0.0489654541015625
1704370126115016700,6.2470166015625,-1.026641845703125,-0.507537841796875,-0.0029144287109375
1704370126124992500,6.256992431640625,-1.0251922607421875,-0.5337371826171875,0.0319061279296875
1704370126134968600,6.266968505859375,-1.0048828125,-0.541839599609375,0.0342254638671875
1704370126144944600,6.276944580078125,-0.99578857421875,-0.551239013671875,0.0267181396484375
1704370126154920700,6.286920654296875,-1.0089111328125,-0.5702972412109375,0.0242919921875
1704370126164896800,6.296896728515625,-1.035003662109375,-0.5848846435546875,0.0262603759765625
1704370126174872600,6.30687255859375,-1.063018798828125,-0.5731964111328125,0.009552001953125
1704370126184848600,6.3168486328125,-1.096588134765625,-0.5283203125,-0.02484130859375
1704370126194824700,6.32682470703125,-1.1470489501953125,-0.4702606201171875,-0.051544189453125
1704370126204800500,6.336800537109375,-1.2070770263671875,-0.4195098876953125,-0.06024169921875
1704370126214776600,6.346776611328125,-1.2552337646484375,-0.3773040771484375,-0.0514678955078125
1704370126224752600,6.356752685546875,-1.2651214599609375,-0.3404083251953125,-0.02740478515625
1704370126234728400,6.366728515625,-1.231475830078125,-0.3157501220703125,0.0018157958984375
1704370126244704800,6.376704833984375,-1.1718902587890625,-0.304931640625,0.033477783203125
1704370126254680600,6.3866806640625,-1.1034088134765625,-0.3137969970703125,0.053253173828125
1704370126264656600,6.39665673828125,-1.0450439453125,-0.3320770263671875,0.0522613525390625
1704370126274632700,6.4066328125,-0.9995880126953125,-0.3433837890625,0.0399169921875
1704370126284608500,6.4166083984375,-0.97344970703125,-0.3444366455078125,0.020599365234375
1704370126294584600,6.42658447265625,-0.96295166015625,-0.3425750732421875,0.006195068359375
1704370126304560600,6.436560546875,-0.9627838134765625,-0.333770751953125,-0.0013580322265625
1704370126314536400,6.446536376953125,-0.96435546875,-0.3211669921875,-0.0045166015625
1704370126324512800,6.4565126953125,-0.965179443359375,-0.31170654296875,-0.0009002685546875
1704370126334488600,6.466488525390625,-0.965087890625,-0.30584716796875,0.006622314453125
1704370126344464600,6.476464599609375,-0.9651947021484375,-0.302276611328125,0.0156707763671875
1704370126354440700,6.486440673828125,-0.9618988037109375,-0.301849365234375,0.0199737548828125
1704370126364416500,6.49641650390625,-0.9527435302734375,-0.3008270263671875,0.0158538818359375
1704370126374392600,6.506392578125,-0.9378814697265625,-0.303680419921875,0.0074462890625
1704370126384368600,6.51636865234375,-0.9169158935546875,-0.311767578125,-0.001434326171875
1704370126394344400,6.526344482421875,-0.8888702392578125,-0.3280792236328125,-0.0116119384765625
1704370126404320800,6.53632080078125,-0.85833740234375,-0.34698486328125,-0.0202484130859375
1704370126414296600,6.546296630859375,-0.8281707763671875,-0.3633880615234375,-0.0306854248046875
1704370126424272600,6.556272705078125,-0.80010986328125,-0.3774261474609375,-0.037322998046875
1704370126434248700,6.566248779296875,-0.7751007080078125,-0.387969970703125,-0.042083740234375
1704370126444224500,6.576224609375,-0.756134033203125,-0.396453857421875,-0.0435333251953125
1704370126454200600,6.58620068359375,-0.7392578125,-0.4041290283203125,-0.042236328125
1704370126464176600,6.5961767578125,-0.73193359375,-0.41070556640625,-0.0382843017578125
1704370126474152400,6.60615234375,-0.7303314208984375,-0.4151458740234375,-0.0333709716796875
1704370126484128800,6.616128662109375,-0.738494873046875,-0.417327880859375,-0.03009033203125
1704370126494104600,6.6261044921875,-0.7525787353515625,-0.4120025634765625,-0.025177001953125
1704370126504080600,6.63608056640625,-0.7687225341796875,-0.40264892578125,-0.0228729248046875
1704370126514056700,6.646056640625,-0.779266357421875,-0.3941650390625,-0.019744873046875
1704370126524032500,6.656032470703125,-0.784027099609375,-0.3916473388671875,-0.0138702392578125
1704370126534008600,6.666008544921875,-0.7888946533203125,-0.3968353271484375,-0.0069580078125
1704370126543984600,6.675984619140625,-0.794525146484375,-0.4068450927734375,-0.0001220703125
1704370126553960400,6.68596044921875,-0.79876708984375,-0.4128570556640625,0.0050506591796875
1704370126563936800,6.695936767578125,-0.803497314453125,-0.4163665771484375,0.0082855224609375
1704370126573912600,6.70591259765625,-0.8079833984375,-0.4183807373046875,0.013214111328125
1704370126583889000,6.715888916015625,-0.8137054443359375,-0.426666259765625,0.0171966552734375
1704370126593864700,6.72586474609375,-0.8162689208984375,-0.438720703125,0.021514892578125
1704370126603840800,6.7358408203125,-0.812744140625,-0.4539031982421875,0.0222320556640625
1704370126613816800,6.74581689453125,-0.80706787109375,-0.46923828125,0.020477294921875
1704370126623792600,6.755792724609375,-0.8051605224609375,-0.484222412109375,0.0162200927734375
1704370126633768700,6.765768798828125,-0.8026580810546875,-0.4987945556640625,0.0129547119140625
1704370126643744800,6.775744873046875,-0.80023193359375,-0.508331298828125,0.00946044921875
1704370126653720800,6.785720947265625,-0.8012237548828125,-0.511474609375,0.006103515625
1704370126663696600,6.795696533203125,-0.8039398193359375,-0.5140838623046875,-0.0006256103515625
1704370126673672700,6.805672607421875,-0.81201171875,-0.5118865966796875,-0.0153045654296875
1704370126683648800,6.815648681640625,-0.825653076171875,-0.5019683837890625,-0.032806396484375
1704370126693624800,6.825624755859375,-0.8444671630859375,-0.4925689697265625,-0.0485382080078125
1704370126703600600,6.8356005859375,-0.868927001953125,-0.48345947265625,-0.0583343505859375
1704370126713576700,6.84557666015625,-0.891754150390625,-0.47772216796875,-0.0584716796875
1704370126723552800,6.855552734375,-0.913299560546875,-0.4774627685546875,-0.046630859375
1704370126733528800,6.86552880859375,-0.935272216796875,-0.4872589111328125,-0.0267181396484375
1704370126743504600,6.875504638671875,-0.9615325927734375,-0.504364013671875,-0.0132293701171875
1704370126753480700,6.885480712890625,-0.9867401123046875,-0.529815673828125,-0.01104736328125
1704370126763456800,6.895456787109375,-1.0092315673828125,-0.5502471923828125,-0.027099609375
1704370126773432800,6.905432861328125,-1.0258636474609375,-0.552703857421875,-0.0673980712890625
1704370126783408600,6.91540869140625,-1.0454254150390625,-0.5390167236328125,-0.120819091796875
1704370126793384700,6.925384765625,-1.0837860107421875,-0.524505615234375,-0.1644287109375
1704370126803360800,6.93536083984375,-1.1392822265625,-0.5137939453125,-0.199951171875
1704370126813336800,6.9453369140625,-1.1954498291015625,-0.4973907470703125,-0.2279205322265625
1704370126823312600,6.955312744140625,-1.2293701171875,-0.4651336669921875,-0.2415924072265625
1704370126833288700,6.965288818359375,-1.2354888916015625,-0.42291259765625,-0.2340850830078125
1704370126843264800,6.9752646484375,-1.220184326171875,-0.386322021484375,-0.208984375
1704370126853240800,6.98524072265625,-1.18511962890625,-0.3593597412109375,-0.179718017578125
1704370126863216600,6.995216552734375,-1.1407623291015625,-0.3392333984375,-0.155609130859375
1704370126873192700,7.005192626953125,-1.0970458984375,-0.33160400390625,-0.1391448974609375
1704370126883168800,7.015168701171875,-1.0588226318359375,-0.3343505859375,-0.1315460205078125
1704370126893144800,7.025144775390625,-1.01824951171875,-0.33770751953125,-0.134307861328125
1704370126903120600,7.03512060546875,-0.9798583984375,-0.342376708984375,-0.1464691162109375
1704370126913096700,7.0450966796875,-0.9456329345703125,-0.3501739501953125,-0.162811279296875
1704370126923072800,7.05507275390625,-0.918243408203125,-0.3570709228515625,-0.18603515625
1704370126933048800,7.065048828125,-0.90081787109375,-0.3600006103515625,-0.2177581787109375
1704370126943024600,7.075024658203125,-0.8962860107421875,-0.36236572265625,-0.2463226318359375
1704370126953000700,7.085000732421875,-0.899139404296875,-0.357391357421875,-0.26654052734375
1704370126962976800,7.094976806640625,-0.9045257568359375,-0.3468475341796875,-0.2693023681640625
1704370126972952800,7.104952880859375,-0.9098052978515625,-0.33380126953125,-0.2528533935546875
1704370126982928600,7.1149287109375,-0.9125213623046875,-0.323883056640625,-0.22222900390625
1704370126992904700,7.12490478515625,-0.9065093994140625,-0.3172149658203125,-0.1817626953125
1704370127002880800,7.134880859375,-0.8929595947265625,-0.3154449462890625,-0.1437225341796875
1704370127012856800,7.14485693359375,-0.8685302734375,-0.3147430419921875,-0.112884521484375
1704370127022832600,7.15483251953125,-0.8438873291015625,-0.3180999755859375,-0.0858612060546875
1704370127032808700,7.16480859375,-0.815399169921875,-0.325653076171875,-0.0579833984375
1704370127042784800,7.17478466796875,-0.7877044677734375,-0.3367767333984375,-0.0321807861328125
1704370127052760800,7.1847607421875,-0.76409912109375,-0.35028076171875,-0.0148468017578125
1704370127062736600,7.194736572265625,-0.74163818359375,-0.364990234375,-0.005859375
1704370127072712700,7.204712646484375,-0.71905517578125,-0.381622314453125,-0.001495361328125
1704370127082688800,7.214688720703125,-0.7038116455078125,-0.3990478515625,-0.0059051513671875
1704370127092664800,7.224664794921875,-0.69329833984375,-0.41717529296875,-0.0143585205078125
1704370127102640600,7.234640625,-0.6844940185546875,-0.434906005859375,-0.0233612060546875
1704370127112616700,7.24461669921875,-0.679656982421875,-0.4484405517578125,-0.0357513427734375
1704370127122592800,7.2545927734375,-0.68670654296875,-0.4588470458984375,-0.04522705078125
1704370127132568800,7.26456884765625,-0.7025299072265625,-0.465606689453125,-0.0518951416015625
1704370127142544600,7.274544677734375,-0.7288360595703125,-0.4634246826171875,-0.0592498779296875
1704370127152520700,7.284520751953125,-0.759307861328125,-0.4529876708984375,-0.064453125
1704370127162496800,7.294496826171875,-0.7884063720703125,-0.4412994384765625,-0.0646209716796875
1704370127172472800,7.304472900390625,-0.8131103515625,-0.4323272705078125,-0.064666748046875
1704370127182448600,7.31444873046875,-0.8344268798828125,-0.4271240234375,-0.0686798095703125
1704370127192424700,7.3244248046875,-0.8506622314453125,-0.4235076904296875,-0.0742340087890625
1704370127202400800,7.33440087890625,-0.8676300048828125,-0.4231414794921875,-0.0795135498046875
1704370127212376800,7.344376953125,-0.88232421875,-0.423309326171875,-0.083984375
1704370127222352600,7.3543525390625,-0.895233154296875,-0.4232025146484375,-0.08978271484375
1704370127232328700,7.36432861328125,-0.9019317626953125,-0.4293670654296875,-0.0920867919921875
1704370127242304800,7.3743046875,-0.901885986328125,-0.4410552978515625,-0.0903778076171875
1704370127252280800,7.38428076171875,-0.90203857421875,-0.4597320556640625,-0.08477783203125
1704370127262256600,7.394256591796875,-0.8958587646484375,-0.47869873046875,-0.077545166015625
1704370127272232700,7.404232666015625,-0.8861541748046875,-0.4924774169921875,-0.0747222900390625
1704370127282208800,7.414208740234375,-0.8685760498046875,-0.504913330078125,-0.07403564453125
1704370127292184800,7.424184814453125,-0.847900390625,-0.5200653076171875,-0.0702362060546875
1704370127302160600,7.43416064453125,-0.831512451171875,-0.538299560546875,-0.0616302490234375
1704370127312136700,7.44413671875,-0.825897216796875,-0.554351806640625,-0.0553741455078125
1704370127322112800,7.45411279296875,-0.8319244384765625,-0.56243896484375,-0.0518951416015625
1704370127332088800,7.4640888671875,-0.847900390625,-0.5672607421875,-0.04730224609375
1704370127342065000,7.47406494140625,-0.863067626953125,-0.5636138916015625,-0.0432891845703125
1704370127352040700,7.484040771484375,-0.8775482177734375,-0.5555572509765625,-0.0390777587890625
1704370127362016800,7.494016845703125,-0.891632080078125,-0.5426483154296875,-0.0351715087890625
1704370127371992800,7.503992919921875,-0.9152984619140625,-0.52471923828125,-0.033355712890625
1704370127381968600,7.51396875,-0.9474945068359375,-0.5025177001953125,-0.0295867919921875
1704370127391944700,7.52394482421875,-0.9837493896484375,-0.4832916259765625,-0.0212554931640625
1704370127401920800,7.533920654296875,-1.020416259765625,-0.4717254638671875,-0.002349853515625
1704370127411896800,7.543896728515625,-1.0483551025390625,-0.4824981689453125,0.0346832275390625
1704370127421874000,7.5538740234375,-1.05218505859375,-0.512725830078125,0.0830230712890625
1704370127431849700,7.563849609375,-1.0281829833984375,-0.5349884033203125,0.113494873046875
1704370127441825500,7.573825439453125,-0.996063232421875,-0.5416259765625,0.1151123046875
1704370127451801900,7.5838017578125,-0.9783477783203125,-0.5450897216796875,0.1044921875
1704370127461777700,7.593777587890625,-0.975372314453125,-0.549468994140625,0.0840301513671875
1704370127471753700,7.603753662109375,-0.9792938232421875,-0.539703369140625,0.05316162109375
1704370127481729800,7.613729736328125,-0.9998321533203125,-0.51690673828125,0.02178955078125
1704370127491705600,7.62370556640625,-1.04693603515625,-0.483673095703125,0.00152587890625
1704370127501682000,7.633681884765625,-1.1046600341796875,-0.4440460205078125,-0.007110595703125
1704370127511657700,7.64365771484375,-1.1478271484375,-0.407989501953125,-0.0055084228515625
1704370127521633500,7.653633544921875,-1.1659088134765625,-0.376678466796875,0.010498046875
1704370127531609900,7.66360986328125,-1.159820556640625,-0.358245849609375,0.0323028564453125
1704370127541585700,7.673585693359375,-1.13983154296875,-0.351593017578125,0.051544189453125
1704370127551561700,7.683561767578125,-1.1211700439453125,-0.348388671875,0.0570526123046875
1704370127561538300,7.693538330078125,-1.1138153076171875,-0.3391265869140625,0.041107177734375
1704370127571514400,7.703514404296875,-1.109893798828125,-0.32666015625,0.0150146484375
1704370127581490200,7.713490234375,-1.1001434326171875,-0.316650390625,-0.006683349609375
1704370127591466200,7.72346630859375,-1.0861663818359375,-0.310791015625,-0.020782470703125
1704370127601442300,7.7334423828125,-1.0683746337890625,-0.3083343505859375,-0.020721435546875
1704370127611418400,7.74341845703125,-1.0450439453125,-0.305572509765625,-0.010650634765625
1704370127621394400,7.75339453125,-1.0218658447265625,-0.3023681640625,0.000640869140625
1704370127631370200,7.763370361328125,-0.9985198974609375,-0.3064117431640625,0.0116729736328125
1704370127641346300,7.77334619140625,-0.969635009765625,-0.3134002685546875,0.016876220703125
1704370127651322400,7.783322265625,-0.9376220703125,-0.3197784423828125,0.0142364501953125
1704370127661298200,7.793298095703125,-0.9110260009765625,-0.3270111083984375,0.006256103515625
1704370127671274200,7.803274169921875,-0.8888092041015625,-0.3350830078125,-0.0041351318359375
1704370127681250300,7.813250244140625,-0.8712005615234375,-0.339874267578125,-0.014862060546875
1704370127691226400,7.823226318359375,-0.85821533203125,-0.345672607421875,-0.02099609375
1704370127701202400,7.833202392578125,-0.841217041015625,-0.35107421875,-0.0203857421875
1704370127711178200,7.84317822265625,-0.817413330078125,-0.356201171875,-0.0144195556640625
1704370127721154300,7.853154296875,-0.7902069091796875,-0.3618316650390625,-0.0046539306640625
1704370127731130400,7.86313037109375,-0.7627410888671875,-0.3675537109375,0.005584716796875
1704370127741106200,7.873106201171875,-0.7391815185546875,-0.3758697509765625,0.0160369873046875
1704370127751082200,7.883082275390625,-0.720794677734375,-0.3823699951171875,0.01934814453125
1704370127761058300,7.893058349609375,-0.70867919921875,-0.38671875,0.0243988037109375
1704370127771034400,7.903034423828125,-0.69964599609375,-0.389923095703125,0.028656005859375
1704370127781010400,7.913010498046875,-0.698638916015625,-0.3902435302734375,0.0298004150390625
1704370127790986200,7.922986328125,-0.7057952880859375,-0.39105224609375,0.0290679931640625
1704370127800962300,7.93296240234375,-0.72247314453125,-0.3937225341796875,0.0274810791015625
1704370127810938400,7.9429384765625,-0.7445220947265625,-0.391693115234375,0.0198974609375
1704370127820914200,7.9529140625,-0.7671356201171875,-0.386871337890625,0.007415771484375
1704370127830890200,7.96289013671875,-0.7939453125,-0.38824462890625,-0.0026702880859375
1704370127840866300,7.9728662109375,-0.8219146728515625,-0.3932647705078125,-0.0078887939453125
1704370127850842000,7.982842041015625,-0.841400146484375,-0.3967742919921875,-0.0097198486328125
1704370127860818400,7.992818359375,-0.8501434326171875,-0.4024505615234375,-0.0115509033203125
1704370127870794200,8.002794189453125,-0.8486328125,-0.4158782958984375,-0.010284423828125
1704370127880770300,8.012770263671875,-0.840545654296875,-0.4345703125,-0.005157470703125
1704370127890746400,8.022746337890625,-0.82965087890625,-0.4544830322265625,-0.0001373291015625
1704370127900722200,8.03272216796875,-0.8160247802734375,-0.4670257568359375,0.0008697509765625
1704370127910698200,8.0426982421875,-0.8089752197265625,-0.4747161865234375,-0.0002593994140625
1704370127920674300,8.05267431640625,-0.81451416015625,-0.4812774658203125,-0.000335693359375
1704370127930650000,8.062650146484375,-0.829986572265625,-0.484405517578125,0.002471923828125
1704370127940626400,8.07262646484375,-0.85174560546875,-0.484649658203125,0.0039215087890625
1704370127950602200,8.082602294921875,-0.8710174560546875,-0.4849700927734375,-0.000152587890625
1704370127960578300,8.092578369140625,-0.8843231201171875,-0.484710693359375,-0.0099029541015625
1704370127970554400,8.102554443359375,-0.8906707763671875,-0.484283447265625,-0.0225067138671875
1704370127980530200,8.1125302734375,-0.8975067138671875,-0.4850311279296875,-0.0341033935546875
1704370127990506200,8.12250634765625,-0.9039306640625,-0.4822540283203125,-0.0450286865234375
1704370128000482300,8.132482421875,-0.911956787109375,-0.474151611328125,-0.0539093017578125
1704370128010458000,8.1424580078125,-0.9203948974609375,-0.4675140380859375,-0.0532379150390625
1704370128020434400,8.152434326171875,-0.930328369140625,-0.464630126953125,-0.0441741943359375
1704370128030410200,8.16241015625,-0.939422607421875,-0.4712371826171875,-0.025787353515625
1704370128040386300,8.17238623046875,-0.9466094970703125,-0.4929656982421875,-0.0034942626953125
1704370128050362400,8.1823623046875,-0.954345703125,-0.5333404541015625,0.019927978515625
1704370128060338200,8.192338134765626,-0.95489501953125,-0.571563720703125,0.0235748291015625
1704370128070314200,8.202314208984374,-0.9452362060546875,-0.577239990234375,-0.0167236328125
1704370128080290300,8.212290283203124,-0.9535369873046875,-0.55615234375,-0.084716796875
1704370128090266000,8.22226611328125,-0.99298095703125,-0.5321807861328125,-0.1348419189453125
1704370128100242400,8.232242431640625,-1.0469970703125,-0.5009765625,-0.1597137451171875
1704370128110218200,8.24221826171875,-1.1163177490234375,-0.4613494873046875,-0.1738739013671875
1704370128120194300,8.2521943359375,-1.1931610107421875,-0.413116455078125,-0.17584228515625
1704370128130170400,8.26217041015625,-1.244110107421875,-0.359771728515625,-0.1726837158203125
1704370128140146200,8.272146240234376,-1.2690887451171875,-0.31182861328125,-0.1701507568359375
1704370128150122200,8.282122314453124,-1.2662811279296875,-0.281524658203125,-0.1552886962890625
1704370128160098300,8.292098388671874,-1.2296905517578125,-0.2680206298828125,-0.1270904541015625
1704370128170074000,8.30207421875,-1.1621856689453125,-0.274444580078125,-0.1056060791015625
1704370128180050400,8.312050537109375,-1.0830230712890625,-0.30328369140625,-0.09539794921875
1704370128190026200,8.322026123046875,-1.0052490234375,-0.33502197265625,-0.102142333984375
1704370128200002300,8.332002197265625,-0.939239501953125,-0.3590087890625,-0.120880126953125
1704370128209978400,8.341978271484376,-0.8862457275390625,-0.3750762939453125,-0.1492919921875
1704370128219954200,8.3519541015625,-0.852447509765625,-0.3839111328125,-0.1844329833984375
1704370128229930200,8.36193017578125,-0.8417510986328125,-0.393707275390625,-0.2162322998046875
1704370128239906300,8.37190625,-0.84893798828125,-0.39697265625,-0.2422943115234375
1704370128249882000,8.381882080078125,-0.862335205078125,-0.387237548828125,-0.25634765625
1704370128259858400,8.3918583984375,-0.8762969970703125,-0.36920166015625,-0.254730224609375
1704370128269834200,8.401834228515625,-0.886871337890625,-0.35382080078125,-0.23382568359375
1704370128279810300,8.411810302734375,-0.888580322265625,-0.34417724609375,-0.1977081298828125
1704370128289786400,8.421786376953126,-0.8791046142578125,-0.339569091796875,-0.152923583984375
1704370128299762200,8.43176220703125,-0.8659820556640625,-0.33563232421875,-0.114715576171875
1704370128309738500,8.441738525390624,-0.8523406982421875,-0.331817626953125,-0.089111328125
1704370128319714300,8.45171435546875,-0.839599609375,-0.333038330078125,-0.0732269287109375
1704370128329690000,8.461690185546875,-0.825225830078125,-0.3378753662109375,-0.062286376953125
1704370128339666400,8.47166650390625,-0.80584716796875,-0.3461456298828125,-0.0573272705078125
1704370128349642200,8.481642333984375,-0.78350830078125,-0.3558349609375,-0.0571136474609375
1704370128359618300,8.491618408203125,-0.7650146484375,-0.3706207275390625,-0.0588531494140625
1704370128369594400,8.501594482421876,-0.74932861328125,-0.3861236572265625,-0.0602264404296875
1704370128379570200,8.511570068359376,-0.7323760986328125,-0.3999786376953125,-0.061767578125
1704370128389546500,8.52154638671875,-0.720306396484375,-0.41357421875,-0.0633697509765625
1704370128399522300,8.531522216796875,-0.7160491943359375,-0.4249114990234375,-0.06427001953125
1704370128409498000,8.541498046875,-0.71929931640625,-0.4296722412109375,-0.070037841796875
1704370128419474400,8.551474365234375,-0.727813720703125,-0.4298553466796875,-0.0760498046875
1704370128429450200,8.5614501953125,-0.746856689453125,-0.428680419921875,-0.076171875
1704370128439426300,8.57142626953125,-0.7747344970703125,-0.4260711669921875,-0.0665283203125
1704370128449402400,8.58140234375,-0.808868408203125,-0.4196929931640625,-0.0617218017578125
1704370128459378200,8.591378173828126,-0.8375701904296875,-0.4121856689453125,-0.061126708984375
1704370128469354500,8.6013544921875,-0.85992431640625,-0.41070556640625,-0.061767578125
1704370128479330300,8.611330322265625,-0.8793792724609375,-0.4156494140625,-0.0611724853515625
1704370128489306000,8.62130615234375,-0.8965911865234375,-0.4203033447265625,-0.0623321533203125
1704370128499282400,8.631282470703125,-0.916748046875,-0.4238739013671875,-0.067047119140625
1704370128509258200,8.64125830078125,-0.935028076171875,-0.4247894287109375,-0.0706329345703125
1704370128519234300,8.651234375,-0.9500274658203125,-0.4243011474609375,-0.0724029541015625
1704370128529210400,8.66121044921875,-0.9524688720703125,-0.4263458251953125,-0.0695648193359375
1704370128539186200,8.671186279296874,-0.94427490234375,-0.4356231689453125,-0.0619354248046875
1704370128549163300,8.681163330078125,-0.9269866943359375,-0.44964599609375,-0.0549468994140625
1704370128559138000,8.691137939453125,-0.9033966064453125,-0.468170166015625,-0.0503997802734375
1704370128569115100,8.701115234375,-0.8812103271484375,-0.4832916259765625,-0.0520477294921875
1704370128579091200,8.71109130859375,-0.8691253662109375,-0.501190185546875,-0.0509033203125
1704370128589066000,8.72106591796875,-0.8658447265625,-0.5167083740234375,-0.0497894287109375
1704370128599043000,8.73104296875,-0.8656768798828125,-0.529632568359375,-0.05322265625
1704370128609019100,8.74101904296875,-0.8675384521484375,-0.5403900146484375,-0.0557098388671875
1704370128618995200,8.7509951171875,-0.8695831298828125,-0.550567626953125,-0.0547637939453125
1704370128628971000,8.760970947265625,-0.8727874755859375,-0.5541839599609375,-0.0569000244140625
1704370128638947000,8.770947021484375,-0.8763275146484375,-0.550750732421875,-0.0629730224609375
1704370128648923100,8.780923095703125,-0.8788909912109375,-0.5386199951171875,-0.073272705078125
1704370128658899000,8.79089892578125,-0.8941650390625,-0.5211944580078125,-0.081024169921875
1704370128668875300,8.800875244140625,-0.9178466796875,-0.5032196044921875,-0.0901947021484375
1704370128678851000,8.81085107421875,-0.9508209228515625,-0.4910125732421875,-0.086639404296875
1704370128688827100,8.8208271484375,-0.985321044921875,-0.4947662353515625,-0.059539794921875
1704370128698803200,8.83080322265625,-1.0091094970703125,-0.519927978515625,-0.0153656005859375
1704370128708779000,8.840779052734375,-1.0117950439453125,-0.549407958984375,0.02490234375
1704370128718755000,8.850755126953125,-0.9904632568359375,-0.565338134765625,0.0420379638671875
1704370128728731100,8.860731201171875,-0.9759063720703125,-0.573699951171875,0.0349884033203125
1704370128738707000,8.87070703125,-0.980224609375,-0.5806121826171875,0.015411376953125
1704370128748683300,8.880683349609376,-1.00494384765625,-0.5713958740234375,-0.0175323486328125
1704370128758659000,8.8906591796875,-1.05865478515625,-0.5269775390625,-0.0546875
1704370128768635100,8.90063525390625,-1.137359619140625,-0.468719482421875,-0.077117919921875
1704370128778611200,8.910611083984374,-1.2176361083984375,-0.4179840087890625,-0.077728271484375
1704370128788587000,8.9205869140625,-1.2735137939453125,-0.3743438720703125,-0.05328369140625
1704370128798563000,8.93056298828125,-1.274932861328125,-0.3349761962890625,-0.0043182373046875
1704370128808539100,8.9405390625,-1.2263031005859375,-0.311309814453125,0.058807373046875
1704370128818515000,8.950514892578125,-1.14422607421875,-0.3030242919921875,0.10198974609375
1704370128828491300,8.9604912109375,-1.0550537109375,-0.3166351318359375,0.12469482421875
1704370128838467000,8.970467041015626,-0.986572265625,-0.3432769775390625,0.1281585693359375
1704370128848443100,8.980443115234374,-0.9467010498046875,-0.366485595703125,0.110626220703125
1704370128858419200,8.990419189453124,-0.9256439208984375,-0.3787078857421875,0.0743865966796875
1704370128868395000,9.00039501953125,-0.92083740234375,-0.3824005126953125,0.0327301025390625
1704370128878371000,9.01037109375,-0.9248504638671875,-0.3800201416015625,-0.005950927734375
1704370128888347100,9.02034716796875,-0.934722900390625,-0.37445068359375,-0.0296783447265625
1704370128898323000,9.030322998046875,-0.9469451904296875,-0.3672637939453125,-0.0448760986328125
1704370128908299300,9.04029931640625,-0.956085205078125,-0.359161376953125,-0.0517425537109375
1704370128918275000,9.050275146484376,-0.959320068359375,-0.3557891845703125,-0.0518341064453125
1704370128928251100,9.060251220703124,-0.9491729736328125,-0.353790283203125,-0.047027587890625
1704370128938227200,9.070227294921875,-0.9356842041015625,-0.350799560546875,-0.04461669921875
1704370128948203000,9.080203125,-0.922027587890625,-0.3462677001953125,-0.0473175048828125
1704370128958179000,9.090178955078125,-0.909027099609375,-0.3380279541015625,-0.050567626953125
1704370128968155100,9.100155029296875,-0.899444580078125,-0.3304901123046875,-0.0549774169921875
1704370128978131000,9.110130859375,-0.8914794921875,-0.325439453125,-0.0522613525390625
1704370128988107300,9.120107177734376,-0.875823974609375,-0.325775146484375,-0.0397796630859375
1704370128998083000,9.1300830078125,-0.8512725830078125,-0.33062744140625,-0.026824951171875
1704370129008059100,9.14005908203125,-0.821685791015625,-0.3418121337890625,-0.01593017578125
1704370129018035200,9.15003515625,-0.7904815673828125,-0.3527069091796875,-0.0041656494140625
1704370129028011000,9.160010986328125,-0.7599639892578125,-0.3564605712890625,0.0022735595703125
1704370129037987300,9.1699873046875,-0.734100341796875,-0.3580780029296875,0.0038604736328125
1704370129047963100,9.179963134765625,-0.7188873291015625,-0.3619842529296875,0.00848388671875
1704370129057939000,9.18993896484375,-0.7129058837890625,-0.3692626953125,0.0133056640625
1704370129067915300,9.199915283203126,-0.7135009765625,-0.3782196044921875,0.0157623291015625
1704370129077891000,9.20989111328125,-0.717803955078125,-0.385986328125,0.0140380859375
1704370129087867100,9.2198671875,-0.7249755859375,-0.3943634033203125,0.0004119873046875
1704370129097843200,9.22984326171875,-0.740386962890625,-0.402313232421875,-0.013519287109375
1704370129107819000,9.239819091796875,-0.754150390625,-0.40716552734375,-0.028045654296875
1704370129117795300,9.24979541015625,-0.7688446044921875,-0.4100799560546875,-0.0389556884765625
1704370129127771100,9.259771240234375,-0.780303955078125,-0.414215087890625,-0.0419921875
1704370129137747000,9.269746826171875,-0.7906646728515625,-0.41680908203125,-0.039306640625
1704370129147723300,9.27972314453125,-0.803497314453125,-0.42327880859375,-0.0338134765625
1704370129157699000,9.289698974609376,-0.8157958984375,-0.4308319091796875,-0.0286712646484375
1704370129167675100,9.299675048828124,-0.823577880859375,-0.4367523193359375,-0.026580810546875
1704370129177651200,9.309651123046875,-0.83306884765625,-0.4425506591796875,-0.0241851806640625
1704370129187627000,9.319626953125,-0.8410491943359375,-0.4520263671875,-0.0205535888671875
1704370129197603300,9.329603271484375,-0.8439483642578125,-0.4634552001953125,-0.01885986328125
1704370129207579100,9.3395791015625,-0.837738037109375,-0.4754638671875,-0.02349853515625
1704370129217555000,9.349554931640625,-0.83258056640625,-0.490966796875,-0.0274658203125
1704370129227531300,9.35953125,-0.827850341796875,-0.50616455078125,-0.032012939453125
1704370129237507000,9.369507080078124,-0.822509765625,-0.5159149169921875,-0.038848876953125
1704370129247483100,9.379483154296874,-0.8169403076171875,-0.525177001953125,-0.04248046875
1704370129257459200,9.389459228515625,-0.8202056884765625,-0.528350830078125,-0.0439605712890625
1704370129267435000,9.39943505859375,-0.828582763671875,-0.5257110595703125,-0.0452423095703125
1704370129277411300,9.409411376953125,-0.846282958984375,-0.518829345703125,-0.0518646240234375
1704370129287387100,9.41938720703125,-0.87139892578125,-0.5083770751953125,-0.0614471435546875
1704370129297363000,9.429363037109376,-0.899871826171875,-0.5014801025390625,-0.065460205078125
1704370129307339300,9.43933935546875,-0.9333648681640625,-0.5030670166015625,-0.059722900390625
1704370129317315000,9.449315185546874,-0.9679412841796875,-0.5174102783203125,-0.0455780029296875
1704370129327291100,9.459291015625,-0.9969940185546875,-0.544677734375,-0.0250701904296875
1704370129337267200,9.46926708984375,-1.009521484375,-0.5790557861328125,-0.0123138427734375
1704370129347243000,9.479242919921875,-1.001434326171875,-0.5973968505859375,-0.029510498046875
1704370129357219300,9.48921923828125,-0.9985504150390625,-0.5833282470703125,-0.083526611328125
1704370129367195100,9.499195068359375,-1.0238494873046875,-0.5529327392578125,-0.1450042724609375
1704370129377171000,9.5091708984375,-1.0754852294921875,-0.519561767578125,-0.1971435546875
1704370129387147300,9.519147216796876,-1.1709136962890625,-0.4680328369140625,-0.2427520751953125
1704370129397123000,9.529123046875,-1.286224365234375,-0.402008056640625,-0.27935791015625
1704370129407099100,9.53909912109375,-1.388885498046875,-0.32940673828125,-0.30419921875
1704370129417075200,9.5490751953125,-1.44482421875,-0.2670440673828125,-0.3129119873046875
1704370129427051000,9.559051025390625,-1.4437408447265625,-0.2310333251953125,-0.29071044921875
1704370129437027300,9.56902734375,-1.367645263671875,-0.2150726318359375,-0.23553466796875
1704370129447003100,9.579003173828125,-1.2311553955078125,-0.23797607421875,-0.168304443359375
1704370129456979000,9.58897900390625,-1.073883056640625,-0.285797119140625,-0.12481689453125
1704370129466955300,9.598955322265626,-0.9335784912109375,-0.3336181640625,-0.111358642578125
1704370129476931000,9.60893115234375,-0.8204498291015625,-0.3778533935546875,-0.1143035888671875
1704370129486907000,9.618906982421874,-0.74639892578125,-0.40924072265625,-0.14044189453125
1704370129496883200,9.62888330078125,-0.7228851318359375,-0.4250946044921875,-0.17401123046875
1704370129506859000,9.63885888671875,-0.7470245361328125,-0.4188079833984375,-0.2041473388671875
1704370129516835300,9.64883544921875,-0.8001861572265625,-0.3947906494140625,-0.212615966796875
1704370129526811100,9.65881103515625,-0.855377197265625,-0.375518798828125,-0.1880645751953125
1704370129536787000,9.668786865234376,-0.8871917724609375,-0.3669281005859375,-0.143280029296875
1704370129546763300,9.67876318359375,-0.8929290771484375,-0.361083984375,-0.0921478271484375
1704370129556739000,9.688739013671874,-0.8787078857421875,-0.351348876953125,-0.048858642578125
1704370129566714600,9.698714599609374,-0.8555755615234375,-0.345916748046875,-0.018585205078125
1704370129576690400,9.7086904296875,-0.83721923828125,-0.3470001220703125,0.0019683837890625
1704370129586666500,9.71866650390625,-0.82427978515625,-0.3537445068359375,0.0159912109375
1704370129596642600,9.728642578125,-0.809722900390625,-0.35870361328125,0.0232086181640625
1704370129606618600,9.73861865234375,-0.795989990234375,-0.3652496337890625,0.0221710205078125
1704370129616594400,9.748594482421876,-0.7785491943359375,-0.3748626708984375,0.0213165283203125
1704370129626570500,9.758570556640626,-0.7572479248046875,-0.38555908203125,0.021697998046875
1704370129636546600,9.768546630859374,-0.7361907958984375,-0.3998565673828125,0.020416259765625
1704370129646522600,9.778522705078124,-0.7182159423828125,-0.4156341552734375,0.0200958251953125
1704370129656498400,9.78849853515625,-0.7083282470703125,-0.4245758056640625,0.0132598876953125
1704370129666474500,9.798474609375,-0.7039031982421875,-0.4322357177734375,0.0045318603515625
1704370129676451300,9.808451416015625,-0.7066192626953125,-0.439910888671875,0.0000762939453125
1704370129686427600,9.818427734375,-0.719573974609375,-0.439697265625,-0.0027008056640625
1704370129696403500,9.828403564453126,-0.7373504638671875,-0.4285125732421875,-0.00177001953125
1704370129706379500,9.838379638671874,-0.7591552734375,-0.413970947265625,0.0032806396484375
1704370129716355600,9.84835546875,-0.7840118408203125,-0.3973236083984375,0.0129852294921875
1704370129726331400,9.858331298828125,-0.8095245361328125,-0.3818206787109375,0.0188140869140625
1704370129736307700,9.8683076171875,-0.8336334228515625,-0.372772216796875,0.0214691162109375
1704370129746283500,9.878283447265625,-0.85894775390625,-0.370269775390625,0.0245513916015625
1704370129756259300,9.88825927734375,-0.87933349609375,-0.3744659423828125,0.0230255126953125
1704370129766235600,9.898235595703126,-0.88812255859375,-0.3817291259765625,0.0194549560546875
1704370129776211500,9.90821142578125,-0.88922119140625,-0.394378662109375,0.01507568359375
1704370129786187800,9.918187744140624,-0.8819732666015625,-0.40887451171875,0.0094146728515625
1704370129796163600,9.92816357421875,-0.871490478515625,-0.4245758056640625,0.005889892578125
1704370129806139400,9.938139404296875,-0.8632354736328125,-0.4409332275390625,0.000396728515625
1704370129816115700,9.94811572265625,-0.86199951171875,-0.455718994140625,-0.0102081298828125
1704370129826091500,9.958091552734375,-0.8642578125,-0.47332763671875,-0.0162200927734375
1704370129836067300,9.9680673828125,-0.8704986572265625,-0.4900970458984375,-0.0172882080078125
1704370129846043600,9.978043701171876,-0.877532958984375,-0.5064239501953125,-0.016326904296875
1704370129856019500,9.98801953125,-0.8840789794921875,-0.523468017578125,-0.01336669921875
1704370129865995500,9.99799560546875,-0.890655517578125,-0.54022216796875,-0.0131683349609375
1704370129875971600,10.0079716796875,-0.89703369140625,-0.5496978759765625,-0.021575927734375
1704370129885947400,10.017947509765625,-0.90838623046875,-0.549346923828125,-0.0370635986328125
1704370129895923700,10.027923828125,-0.9236602783203125,-0.5399627685546875,-0.062225341796875
1704370129905899500,10.0378994140625,-0.945770263671875,-0.5228729248046875,-0.0966033935546875
1704370129915875300,10.047875244140625,-0.97393798828125,-0.5010528564453125,-0.1369171142578125
1704370129925851600,10.0578515625,-1.0097808837890625,-0.4749755859375,-0.1659698486328125
1704370129935827500,10.067827392578126,-1.0546722412109375,-0.4500274658203125,-0.1632080078125
1704370129945803500,10.077803466796874,-1.10467529296875,-0.4474945068359375,-0.119903564453125
1704370129955779600,10.087779541015625,-1.138397216796875,-0.480682373046875,-0.0383453369140625
1704370129965755400,10.09775537109375,-1.117828369140625,-0.52264404296875,0.0422515869140625
1704370129975731700,10.107731689453125,-1.0449371337890625,-0.5523834228515625,0.0792999267578125
1704370129985707500,10.11770751953125,-0.9853668212890625,-0.5766754150390625,0.077117919921875
1704370129995683300,10.127683349609375,-0.972381591796875,-0.59954833984375,0.055816650390625
1704370130005659600,10.13765966796875,-0.995147705078125,-0.604278564453125,0.0207061767578125
1704370130015635500,10.147635498046874,-1.0418243408203125,-0.575225830078125,-0.03509521484375
1704370130025611500,10.157611572265624,-1.1110687255859375,-0.5294036865234375,-0.0709381103515625
1704370130035587600,10.167587646484375,-1.1778411865234375,-0.4741058349609375,-0.0855255126953125
1704370130045563400,10.1775634765625,-1.2294158935546875,-0.4237213134765625,-0.0850830078125
1704370130055539700,10.187539794921875,-1.2584686279296875,-0.378936767578125,-0.0626220703125
1704370130065515500,10.197515625,-1.256134033203125,-0.345123291015625,-0.0244598388671875
1704370130075491300,10.2074912109375,-1.220794677734375,-0.3211669921875,0.0171966552734375
1704370130085467600,10.217467529296876,-1.159027099609375,-0.3177490234375,0.0550689697265625
1704370130095443500,10.227443359375,-1.0841217041015625,-0.33172607421875,0.071258544921875
1704370130105419500,10.23741943359375,-1.016265869140625,-0.3502349853515625,0.0598602294921875
1704370130115395600,10.2473955078125,-0.9716949462890625,-0.3617706298828125,0.0261077880859375
1704370130125371400,10.257371337890625,-0.9591827392578125,-0.36248779296875,-0.0199737548828125
1704370130135347700,10.26734765625,-0.9737701416015625,-0.350128173828125,-0.0654296875
1704370130145323500,10.277323486328125,-1.002685546875,-0.3231964111328125,-0.09375
1704370130155299300,10.28729931640625,-1.028533935546875,-0.29107666015625,-0.094573974609375
1704370130165275600,10.297275634765626,-1.0399322509765625,-0.2675933837890625,-0.0742645263671875
1704370130175251500,10.30725146484375,-1.033355712890625,-0.255401611328125,-0.046478271484375
1704370130185227500,10.3172275390625,-1.0102081298828125,-0.2504425048828125,-0.025299072265625
1704370130195203600,10.32720361328125,-0.97296142578125,-0.25079345703125,-0.0133209228515625
1704370130205179400,10.337179443359375,-0.923553466796875,-0.2603607177734375,-0.0008697509765625
1704370130215155700,10.34715576171875,-0.8688812255859375,-0.272369384765625,0.0010223388671875
1704370130225131500,10.357131591796875,-0.81451416015625,-0.287750244140625,-0.00439453125
1704370130235107300,10.367107421875,-0.7679595947265625,-0.3079376220703125,-0.010589599609375
1704370130245083600,10.377083740234376,-0.72467041015625,-0.3282318115234375,-0.0188751220703125
1704370130255059500,10.3870595703125,-0.6872406005859375,-0.3476104736328125,-0.02490234375
1704370130265035500,10.397035400390624,-0.6566925048828125,-0.3621368408203125,-0.024566650390625
1704370130275011600,10.407011474609375,-0.63507080078125,-0.3729248046875,-0.02154541015625
1704370130284987400,10.4169873046875,-0.6276702880859375,-0.3821258544921875,-0.0121917724609375
1704370130294963700,10.426963623046875,-0.6295013427734375,-0.3844757080078125,0.000091552734375
1704370130304939500,10.436939453125,-0.6385650634765625,-0.382537841796875,0.00946044921875
1704370130314915300,10.446915283203126,-0.6529388427734375,-0.3795013427734375,0.01702880859375
1704370130324891600,10.4568916015625,-0.670501708984375,-0.3798828125,0.019134521484375
1704370130334867500,10.466867431640624,-0.6936187744140625,-0.386260986328125,0.015167236328125
1704370130344843500,10.476843505859375,-0.7225494384765625,-0.3934326171875,0.002471923828125
1704370130354819600,10.486819580078125,-0.7534027099609375,-0.396026611328125,-0.0118560791015625
1704370130364795400,10.49679541015625,-0.782958984375,-0.397064208984375,-0.023162841796875
1704370130374771700,10.506771728515625,-0.805419921875,-0.3966522216796875,-0.026641845703125
1704370130384747500,10.51674755859375,-0.820709228515625,-0.3992156982421875,-0.02227783203125
1704370130394723300,10.526723388671876,-0.8291015625,-0.4109039306640625,-0.01287841796875
1704370130404699600,10.53669970703125,-0.8332672119140625,-0.4252471923828125,-0.006683349609375
1704370130414675500,10.546675537109374,-0.8449859619140625,-0.43914794921875,-0.0038299560546875
1704370130424651500,10.556651611328125,-0.8564910888671875,-0.449127197265625,-0.006195068359375
1704370130434627600,10.566627685546875,-0.8633880615234375,-0.4543914794921875,-0.0104217529296875
1704370130444603400,10.576603271484375,-0.864837646484375,-0.461334228515625,-0.0142364501953125
1704370130454579700,10.586579833984375,-0.8634033203125,-0.47064208984375,-0.011627197265625
1704370130464555500,10.596555419921875,-0.868560791015625,-0.48089599609375,-0.0122222900390625
1704370130474531300,10.60653125,-0.8828125,-0.48828125,-0.0170135498046875
1704370130484507600,10.616507568359374,-0.9008026123046875,-0.4918975830078125,-0.029815673828125
1704370130494483500,10.6264833984375,-0.9149932861328125,-0.4893341064453125,-0.049163818359375
1704370130504459500,10.63645947265625,-0.92041015625,-0.4840545654296875,-0.0671234130859375
1704370130514435600,10.646435546875,-0.9174652099609375,-0.477294921875,-0.0803680419921875
1704370130524411400,10.656411376953125,-0.915313720703125,-0.4729156494140625,-0.0829010009765625
1704370130534387700,10.6663876953125,-0.922393798828125,-0.473663330078125,-0.07366943359375
1704370130544363500,10.676363525390625,-0.9359893798828125,-0.4838409423828125,-0.0507354736328125
1704370130554339600,10.686339599609376,-0.9516448974609375,-0.5055389404296875,-0.0175628662109375
1704370130564316200,10.696316162109374,-0.95391845703125,-0.5386962890625,0.0142974853515625
1704370130574292200,10.706292236328125,-0.9405517578125,-0.568634033203125,0.033294677734375
1704370130584268000,10.71626806640625,-0.9286651611328125,-0.5788116455078125,0.0201568603515625
1704370130594244000,10.726244140625,-0.933563232421875,-0.5657501220703125,-0.0281829833984375
1704370130604220200,10.73622021484375,-0.9743194580078125,-0.54010009765625,-0.0928802490234375
1704370130614196000,10.746196044921875,-1.045806884765625,-0.4988861083984375,-0.1548919677734375
1704370130624172300,10.75617236328125,-1.1374969482421875,-0.43902587890625,-0.1938629150390625
1704370130634148000,10.766148193359374,-1.246551513671875,-0.3839263916015625,-0.21490478515625
1704370130644124000,10.7761240234375,-1.3425140380859375,-0.3281707763671875,-0.2265472412109375
1704370130654100200,10.786100341796875,-1.40020751953125,-0.272125244140625,-0.221099853515625
1704370130664076000,10.796075927734375,-1.415313720703125,-0.231231689453125,-0.194122314453125
1704370130674052000,10.806052001953125,-1.3673248291015625,-0.211822509765625,-0.143951416015625
1704370130684028200,10.816028076171875,-1.2542877197265625,-0.2128143310546875,-0.0821990966796875
1704370130694004000,10.82600390625,-1.1197662353515625,-0.2404327392578125,-0.0500946044921875
1704370130703980300,10.835980224609376,-0.9953765869140625,-0.281219482421875,-0.039215087890625
1704370130713956000,10.8459560546875,-0.89599609375,-0.31573486328125,-0.0457000732421875
1704370130723932000,10.855931884765624,-0.8217315673828125,-0.343475341796875,-0.0740814208984375
1704370130733908200,10.865908203125,-0.7883453369140625,-0.3639068603515625,-0.121917724609375
1704370130743884000,10.875884033203125,-0.7928009033203125,-0.37420654296875,-0.180816650390625
1704370130753860000,10.885860107421875,-0.81982421875,-0.36712646484375,-0.228759765625
1704370130763836200,10.895836181640625,-0.8538055419921875,-0.347137451171875,-0.2476043701171875
1704370130773812000,10.90581201171875,-0.8834228515625,-0.3266754150390625,-0.233642578125
1704370130783788300,10.915788330078126,-0.8986358642578125,-0.312347412109375,-0.19342041015625
1704370130793764000,10.92576416015625,-0.896209716796875,-0.303253173828125,-0.1343536376953125
1704370130803740000,10.935739990234374,-0.8807830810546875,-0.2998809814453125,-0.0780487060546875
1704370130813716200,10.94571630859375,-0.8592071533203125,-0.2977294921875,-0.0391845703125
1704370130823692000,10.955692138671875,-0.8376617431640625,-0.2986907958984375,-0.01776123046875
1704370130833668400,10.96566845703125,-0.8181915283203125,-0.3052215576171875,-0.0113983154296875
1704370130843644200,10.97564404296875,-0.801910400390625,-0.3162384033203125,-0.0172271728515625
1704370130853620000,10.985619873046875,-0.7899932861328125,-0.3290252685546875,-0.0341796875
1704370130863596300,10.99559619140625,-0.7852935791015625,-0.3413543701171875,-0.0543365478515625
1704370130873572000,11.005572021484374,-0.7884368896484375,-0.3544769287109375,-0.0710296630859375
1704370130883548000,11.0155478515625,-0.7996063232421875,-0.3665771484375,-0.08428955078125
1704370130893524200,11.025524169921875,-0.81085205078125,-0.375762939453125,-0.09222412109375
1704370130903500000,11.0355,-0.8200836181640625,-0.381927490234375,-0.096466064453125
1704370130913476400,11.045476318359375,-0.829193115234375,-0.3883819580078125,-0.09381103515625
1704370130923453200,11.055453125,-0.83837890625,-0.3909912109375,-0.0843353271484375
1704370130933429000,11.065428955078126,-0.8452911376953125,-0.387664794921875,-0.0745697021484375
1704370130943405000,11.075405029296874,-0.848388671875,-0.3805999755859375,-0.066864013671875
1704370130953381000,11.085381103515624,-0.8546905517578125,-0.37725830078125,-0.058807373046875
1704370130963357200,11.095357177734375,-0.8650054931640625,-0.378082275390625,-0.055145263671875
1704370130973333200,11.105333251953125,-0.87640380859375,-0.3800811767578125,-0.0544586181640625
1704370130983309000,11.11530908203125,-0.88592529296875,-0.384246826171875,-0.056671142578125
1704370130993285000,11.12528515625,-0.8929443359375,-0.3905487060546875,-0.056488037109375
1704370131003261200,11.13526123046875,-0.896209716796875,-0.39813232421875,-0.060791015625
1704370131013237000,11.145237060546876,-0.895904541015625,-0.4091796875,-0.067413330078125
1704370131023213000,11.155213134765624,-0.89471435546875,-0.424285888671875,-0.0766143798828125
1704370131033189000,11.165189208984375,-0.8923187255859375,-0.4394683837890625,-0.08587646484375
1704370131043165200,11.175165283203125,-0.8817901611328125,-0.454010009765625,-0.0900726318359375
1704370131053141000,11.18514111328125,-0.8677825927734375,-0.4665374755859375,-0.0875701904296875
1704370131063117000,11.195116943359375,-0.85638427734375,-0.480010986328125,-0.0799102783203125
1704370131073093000,11.205093017578125,-0.8477783203125,-0.49224853515625,-0.069610595703125
1704370131083069200,11.215069091796876,-0.84515380859375,-0.5000762939453125,-0.0628814697265625
1704370131093045000,11.225044921875,-0.8534698486328125,-0.508514404296875,-0.0526123046875
1704370131103021000,11.23502099609375,-0.8704833984375,-0.5139312744140625,-0.041595458984375
1704370131112997000,11.2449970703125,-0.8849334716796875,-0.5159149169921875,-0.0341796875
1704370131122973200,11.25497314453125,-0.8951416015625,-0.5183868408203125,-0.029022216796875
1704370131132949000,11.264948974609375,-0.906005859375,-0.520782470703125,-0.02862548828125
1704370131142925000,11.274925048828125,-0.9168853759765625,-0.5199432373046875,-0.0333709716796875
1704370131152901000,11.284901123046875,-0.9201507568359375,-0.511260986328125,-0.044891357421875
1704370131162877200,11.294877197265626,-0.923828125,-0.4982147216796875,-0.0530548095703125
1704370131172853200,11.304853271484374,-0.9419708251953125,-0.482025146484375,-0.0566253662109375
1704370131182829000,11.3148291015625,-0.9703369140625,-0.468170166015625,-0.051361083984375
1704370131192805000,11.32480517578125,-1.0003509521484375,-0.472198486328125,-0.0302276611328125
1704370131202781200,11.33478125,-1.017608642578125,-0.4804229736328125,-0.0154571533203125
1704370131212757000,11.344757080078125,-1.033538818359375,-0.487548828125,-0.017333984375
1704370131222733000,11.354733154296875,-1.062957763671875,-0.48944091796875,-0.03253173828125
1704370131232709000,11.364709228515625,-1.099029541015625,-0.4765167236328125,-0.0560150146484375
1704370131242685200,11.374685302734376,-1.1443939208984375,-0.4454345703125,-0.08905029296875
1704370131252661200,11.3846611328125,-1.2073974609375,-0.410797119140625,-0.1118316650390625
1704370131262637000,11.394636962890624,-1.2672576904296875,-0.3759765625,-0.1130218505859375
1704370131272613000,11.404613037109375,-1.2932281494140625,-0.3372955322265625,-0.092681884765625
1704370131282589200,11.414589111328125,-1.2780303955078125,-0.304840087890625,-0.0442047119140625
1704370131292565000,11.42456494140625,-1.217132568359375,-0.2927398681640625,0.022918701171875
1704370131302541000,11.434541015625,-1.126678466796875,-0.2956695556640625,0.073333740234375
1704370131312517000,11.44451708984375,-1.0393218994140625,-0.310943603515625,0.0968017578125
1704370131322493200,11.4544931640625,-0.9680938720703125,-0.32623291015625,0.1023101806640625
1704370131332469200,11.46446923828125,-0.9305419921875,-0.3389434814453125,0.086700439453125
1704370131342445000,11.474445068359374,-0.9210357666015625,-0.3519439697265625,0.06048583984375
1704370131352421000,11.484421142578125,-0.9305572509765625,-0.3599395751953125,0.03228759765625
1704370131362397200,11.494397216796875,-0.9489898681640625,-0.3602294921875,0.00225830078125
1704370131372373000,11.504373046875,-0.9620208740234375,-0.3560333251953125,-0.01953125
1704370131382349000,11.51434912109375,-0.9617156982421875,-0.3503265380859375,-0.0308685302734375
1704370131392325000,11.5243251953125,-0.95452880859375,-0.347808837890625,-0.0360870361328125
1704370131402301200,11.53430126953125,-0.9435577392578125,-0.3467559814453125,-0.0352783203125
1704370131412277200,11.54427734375,-0.931121826171875,-0.34735107421875,-0.0317230224609375
1704370131422253000,11.554253173828124,-0.9196624755859375,-0.347442626953125,-0.0303802490234375
1704370131432229000,11.56422900390625,-0.9096832275390625,-0.344085693359375,-0.028167724609375
1704370131442205200,11.574205078125,-0.9018707275390625,-0.3342437744140625,-0.024932861328125
1704370131452181000,11.584180908203125,-0.9029541015625,-0.32012939453125,-0.0246124267578125
1704370131462157000,11.594156982421875,-0.907928466796875,-0.3064727783203125,-0.026397705078125
1704370131472133000,11.604133056640626,-0.910919189453125,-0.2976837158203125,-0.02880859375
1704370131482109200,11.614109130859376,-0.9115753173828125,-0.2949066162109375,-0.0325927734375
1704370131492085200,11.624085205078124,-0.9082489013671875,-0.2943572998046875,-0.0342864990234375
1704370131502061000,11.63406103515625,-0.9006195068359375,-0.2989349365234375,-0.0335845947265625
1704370131512037000,11.644037109375,-0.8812408447265625,-0.3049163818359375,-0.0374603271484375
1704370131522013200,11.65401318359375,-0.857574462890625,-0.3157501220703125,-0.0400238037109375
1704370131531989000,11.663989013671875,-0.8296966552734375,-0.329925537109375,-0.0461273193359375
1704370131541965000,11.673965087890625,-0.798736572265625,-0.3442535400390625,-0.0532379150390625
1704370131551941000,11.683941162109376,-0.7709197998046875,-0.3581085205078125,-0.0562896728515625
1704370131561917400,11.69391748046875,-0.752105712890625,-0.37237548828125,-0.059112548828125
1704370131571893500,11.7038935546875,-0.75048828125,-0.3846588134765625,-0.061981201171875
1704370131581869600,11.71386962890625,-0.7562713623046875,-0.3916473388671875,-0.0656890869140625
1704370131591845600,11.723845703125,-0.766571044921875,-0.3945465087890625,-0.0728607177734375
1704370131601821400,11.733821533203125,-0.7755279541015625,-0.393829345703125,-0.0781707763671875
1704370131611797500,11.743797607421875,-0.7840423583984375,-0.3929595947265625,-0.0802459716796875
1704370131621773600,11.753773681640626,-0.79876708984375,-0.394775390625,-0.0783538818359375
1704370131631749600,11.76374951171875,-0.8161468505859375,-0.40081787109375,-0.072845458984375
1704370131641725400,11.773725341796874,-0.8298492431640625,-0.4068756103515625,-0.068389892578125
1704370131651701500,11.783701416015624,-0.833160400390625,-0.4143524169921875,-0.067138671875
1704370131661677600,11.793677490234375,-0.831268310546875,-0.424163818359375,-0.064239501953125
1704370131671653600,11.803653564453125,-0.827728271484375,-0.437408447265625,-0.0614166259765625
1704370131681629400,11.81362939453125,-0.826934814453125,-0.4494171142578125,-0.0591888427734375
1704370131691605500,11.82360546875,-0.825042724609375,-0.456695556640625,-0.0604400634765625
1704370131701581600,11.83358154296875,-0.8275909423828125,-0.464019775390625,-0.0609130859375
1704370131711557600,11.8435576171875,-0.83428955078125,-0.472137451171875,-0.059295654296875
1704370131721533400,11.853533447265624,-0.845245361328125,-0.4773406982421875,-0.0561676025390625
1704370131731509500,11.863509521484374,-0.85888671875,-0.477203369140625,-0.057403564453125
1704370131741485600,11.873485595703125,-0.87274169921875,-0.4686431884765625,-0.067718505859375
1704370131751461600,11.883461669921875,-0.8813629150390625,-0.457855224609375,-0.079132080078125
1704370131761437400,11.8934375,-0.88946533203125,-0.4531097412109375,-0.0826568603515625
1704370131771413500,11.90341357421875,-0.896728515625,-0.4515838623046875,-0.0748443603515625
1704370131781389600,11.9133896484375,-0.9028472900390625,-0.4579010009765625,-0.0569305419921875
1704370131791365600,11.92336572265625,-0.917144775390625,-0.4790191650390625,-0.027862548828125
1704370131801341400,11.933341552734374,-0.9348602294921875,-0.5092315673828125,-0.0001068115234375
1704370131811317500,11.9433173828125,-0.94696044921875,-0.5439453125,0.0131378173828125
1704370131821293600,11.95329345703125,-0.9469146728515625,-0.570953369140625,0.0140533447265625
1704370131831269400,11.963269287109375,-0.937896728515625,-0.572662353515625,-0.002349853515625
1704370131841245400,11.973245361328125,-0.9346923828125,-0.5541534423828125,-0.0504913330078125
1704370131851221500,11.983221435546875,-0.951263427734375,-0.5292510986328125,-0.1262359619140625
1704370131861197600,11.993197509765626,-1.0000762939453125,-0.4861602783203125,-0.1977996826171875
1704370131871173600,12.003173583984376,-1.077972412109375,-0.4249114990234375,-0.2424163818359375
1704370131881149400,12.0131494140625,-1.1912841796875,-0.36480712890625,-0.2598876953125
1704370131891125500,12.02312548828125,-1.3148193359375,-0.3094024658203125,-0.2599334716796875
1704370131901101600,12.0331015625,-1.397247314453125,-0.26171875,-0.24981689453125
1704370131911077400,12.043077392578125,-1.4159698486328125,-0.233917236328125,-0.2108154296875
1704370131921053700,12.0530537109375,-1.35321044921875,-0.2204132080078125,-0.1551361083984375
1704370131931029500,12.063029541015625,-1.229888916015625,-0.23406982421875,-0.1094970703125
1704370131941005600,12.073005615234376,-1.0940093994140625,-0.28265380859375,-0.09161376953125
1704370131950981600,12.082981689453124,-0.976287841796875,-0.332733154296875,-0.09442138671875
1704370131960957400,12.09295751953125,-0.8922271728515625,-0.3807830810546875,-0.1183013916015625
1704370131970933500,12.10293359375,-0.843170166015625,-0.4171142578125,-0.1627960205078125
1704370131980909600,12.11290966796875,-0.82000732421875,-0.432403564453125,-0.2292938232421875
1704370131990885400,12.122885498046875,-0.818115234375,-0.422210693359375,-0.2895660400390625
1704370132000861700,12.13286181640625,-0.8315277099609375,-0.4007110595703125,-0.3192596435546875
1704370132010837500,12.14283740234375,-0.8523101806640625,-0.3804931640625,-0.3052825927734375
1704370132020813600,12.1528134765625,-0.872283935546875,-0.3649444580078125,-0.2525482177734375
1704370132030789600,12.16278955078125,-0.880035400390625,-0.3484954833984375,-0.18499755859375
1704370132040765400,12.172765380859374,-0.8722381591796875,-0.330047607421875,-0.1214599609375
1704370132050741500,12.182741455078125,-0.85577392578125,-0.3194427490234375,-0.073272705078125
1704370132060717600,12.192717529296875,-0.833038330078125,-0.3194580078125,-0.042388916015625
1704370132070693400,12.202693359375,-0.807952880859375,-0.3297271728515625,-0.023284912109375
1704370132080669700,12.212669677734375,-0.7794647216796875,-0.345672607421875,-0.008331298828125
1704370132090645500,12.2226455078125,-0.7453765869140625,-0.3583221435546875,-0.0011138916015625
1704370132100621600,12.23262158203125,-0.71551513671875,-0.371337890625,-0.0005645751953125
1704370132110597600,12.24259765625,-0.6931610107421875,-0.38775634765625,0.00341796875
1704370132120573400,12.252573486328124,-0.6828155517578125,-0.39990234375,0.001495361328125
1704370132130549500,12.262549560546875,-0.684783935546875,-0.4073028564453125,-0.0050048828125
1704370132140525600,12.272525634765625,-0.69598388671875,-0.4130401611328125,-0.0145721435546875
1704370132150501400,12.28250146484375,-0.71929931640625,-0.4166107177734375,-0.02972412109375
1704370132160477700,12.292477783203125,-0.747314453125,-0.4189453125,-0.0410919189453125
1704370132170453500,12.30245361328125,-0.7764892578125,-0.4172515869140625,-0.0474395751953125
1704370132180429600,12.3124296875,-0.8035125732421875,-0.4114227294921875,-0.0525360107421875
1704370132190405600,12.322405517578124,-0.82586669921875,-0.4033203125,-0.0526123046875
1704370132200381400,12.33238134765625,-0.8451995849609375,-0.3981475830078125,-0.050384521484375
1704370132210357500,12.342357421875,-0.8647003173828125,-0.3963165283203125,-0.0513763427734375
1704370132220333600,12.35233349609375,-0.8819580078125,-0.3942413330078125,-0.054962158203125
1704370132230309400,12.362309326171875,-0.9007415771484375,-0.3939208984375,-0.058349609375
1704370132240285700,12.37228564453125,-0.915313720703125,-0.3970489501953125,-0.0536956787109375
1704370132250262500,12.382262451171876,-0.9209442138671875,-0.402313232421875,-0.044464111328125
1704370132260238600,12.392238525390624,-0.919097900390625,-0.4089508056640625,-0.0342559814453125
1704370132270214700,12.402214599609374,-0.9120941162109375,-0.4186248779296875,-0.0247650146484375
1704370132280190500,12.4121904296875,-0.9015045166015625,-0.429718017578125,-0.020111083984375
1704370132290166500,12.42216650390625,-0.885955810546875,-0.440826416015625,-0.0218353271484375
1704370132300142600,12.432142578125,-0.8790435791015625,-0.455413818359375,-0.02105712890625
1704370132310118400,12.442118408203125,-0.8811492919921875,-0.472259521484375,-0.016845703125
1704370132320094500,12.452094482421876,-0.8854217529296875,-0.4889068603515625,-0.0093841552734375
1704370132330070500,12.462070556640626,-0.88641357421875,-0.5054779052734375,0.0008697509765625
1704370132340046600,12.472046630859374,-0.8828125,-0.5241241455078125,0.014190673828125
1704370132350022700,12.482022705078125,-0.871551513671875,-0.5429534912109375,0.0269012451171875
1704370132359998500,12.49199853515625,-0.859039306640625,-0.559722900390625,0.0327911376953125
1704370132369974500,12.501974609375,-0.8543243408203125,-0.5649261474609375,0.0247039794921875
1704370132379950600,12.51195068359375,-0.858428955078125,-0.569976806640625,0.0133056640625
1704370132389926400,12.521926513671875,-0.88232421875,-0.555084228515625,-0.0136260986328125
1704370132399902500,12.53190234375,-0.916229248046875,-0.5166473388671875,-0.053466796875
1704370132409878500,12.54187841796875,-0.957183837890625,-0.474853515625,-0.082305908203125
1704370132419854600,12.5518544921875,-1.015045166015625,-0.4527740478515625,-0.074005126953125
1704370132429830700,12.56183056640625,-1.0758209228515625,-0.464111328125,-0.0303955078125
1704370132439806500,12.571806396484375,-1.1113739013671875,-0.485137939453125,0.020843505859375
1704370132449782500,12.581782470703125,-1.118316650390625,-0.499053955078125,0.0396881103515625
1704370132459758600,12.591758544921875,-1.1223297119140625,-0.511444091796875,0.0277099609375
1704370132469734400,12.601734375,-1.138031005859375,-0.523193359375,0.0005340576171875
1704370132479710500,12.61171044921875,-1.16046142578125,-0.5225677490234375,-0.0334014892578125
1704370132489686500,12.6216865234375,-1.1875762939453125,-0.5100555419921875,-0.0548858642578125
1704370132499662600,12.63166259765625,-1.2071990966796875,-0.4935760498046875,-0.0465087890625
1704370132509638700,12.641638671875,-1.1955413818359375,-0.47100830078125,-0.0198516845703125
1704370132519614500,12.651614501953125,-1.1432952880859375,-0.445648193359375,0.01611328125
1704370132529590500,12.661590576171875,-1.0731353759765625,-0.433349609375,0.0572967529296875
1704370132539566600,12.671566650390625,-1.0083465576171875,-0.435943603515625,0.0857086181640625
1704370132549542400,12.68154248046875,-0.9553680419921875,-0.4411773681640625,0.1091461181640625
1704370132559518500,12.6915185546875,-0.9149627685546875,-0.4404296875,0.1222076416015625
1704370132569494300,12.701494384765626,-0.8852996826171875,-0.4293060302734375,0.1203765869140625
1704370132579470000,12.711469970703124,-0.86798095703125,-0.4116668701171875,0.111663818359375
1704370132589446400,12.7214462890625,-0.8771514892578125,-0.388031005859375,0.0975494384765625
1704370132599422200,12.731422119140625,-0.9130401611328125,-0.357513427734375,0.08306884765625
