time,seconds_elapsed,z,y,x
1704370119928652300,0.06065234375,-1.1242249789595604,0.560292580576241,-0.04119569627931341
1704370119938628400,0.07062841796875,-0.8677449570715426,0.39429669334217904,-0.26803874132717026
1704370119948604400,0.0806044921875,-0.5901210248678922,0.19379896317794917,-0.4880574750466272
1704370119958580200,0.090580322265625,-0.31319501180052756,0.06331278074234724,-0.6642649962261319
1704370119968556300,0.100556396484375,-0.04796002104878425,-0.04019669357091188,-0.7568423768322914
1704370119978532400,0.110532470703125,0.12698328888118265,-0.1308726975351572,-0.7480005334027111
1704370119988508400,0.12050830078125,0.2527998720705509,-0.19434066883921622,-0.6511117924034595
1704370119998484500,0.130484375,0.32016660437881944,-0.2267752039760351,-0.47546493731401857
1704370120008460300,0.140460205078125,0.2743073550015688,-0.22128625117093323,-0.27237989407032726
1704370120018436400,0.150436279296875,0.11783318322002886,-0.18421119675189257,-0.06701664022896438
1704370120028412400,0.160412353515625,-0.04536942003369331,-0.042188159649074075,0.06050597969330847
1704370120038388200,0.17038818359375,-0.1758154165893793,0.09706541274040936,0.15050744539685545
1704370120048364300,0.1803642578125,-0.28889994397759433,0.20000906986445188,0.21247825521202757
1704370120058340400,0.19034033203125,-0.3977127853959799,0.23051731311380863,0.2279841413743794
1704370120068316400,0.20031640625,-0.514486230430007,0.20095131915062664,0.24017387045975774
1704370120078292500,0.21029248046875,-0.5880114853680134,0.16649083114415406,0.21285974707659333
1704370120088268300,0.220268310546875,-0.622514643472433,0.13505787426531313,0.11973777473233639
1704370120098244400,0.230244384765625,-0.5772545290321112,0.07793518033474683,0.019394070973619816
1704370120108220400,0.240220458984375,-0.4698369413644075,0.012703121967613697,-0.0765462832596153
1704370120118196200,0.2501962890625,-0.3261462633103132,-0.06573387040942907,-0.14085209362730383
1704370120128172300,0.26017236328125,-0.22138006693422793,-0.1624190516605973,-0.21510781826432793
1704370120138148400,0.2701484375,-0.1980634887546301,-0.23355741146206854,-0.2706821502417326
1704370120148124400,0.28012451171875,-0.1628530591636896,-0.23371552463322876,-0.32580548704862594
1704370120158100500,0.2901005859375,-0.0957025999546051,-0.14484423200339078,-0.3925782355191186
1704370120168076300,0.300076171875,0.007637947532534599,-0.027255671194195745,-0.42132535084746775
1704370120178052400,0.31005224609375,0.07016308502852917,0.062201020108163356,-0.35879305295832453
1704370120188028400,0.3200283203125,0.059902972298860546,0.13130582825541495,-0.22998207372594623
1704370120198004200,0.330004150390625,-0.04713584518432617,0.18823826031088828,-0.09395199342761189
1704370120207979500,0.3399794921875,-0.1504085881322622,0.3030646629303694,-0.023301380610466
1704370120217955300,0.349955322265625,-0.1821726766616106,0.45218993325382467,-0.0015539514437317846
1704370120227931100,0.35993115234375,-0.15384791493117808,0.5597314395621419,0.011876681080833076
1704370120237907500,0.369907470703125,-0.10241408029198645,0.5907707209482789,0.07325436557475477
1704370120247883300,0.37988330078125,-0.06177928756475448,0.5821124904572963,0.15103245565164833
1704370120257859600,0.389859619140625,-0.019177578678727148,0.5667755128547549,0.19845851595420388
1704370120267835400,0.39983544921875,-0.02061842513680458,0.5912167111501098,0.1741539496505633
1704370120277811200,0.409811279296875,-0.03926291985213756,0.604097820033133,0.11096622005999088
1704370120287787500,0.41978759765625,-0.11567337483763694,0.5965989887103438,0.06236848562955856
1704370120297763300,0.429763427734375,-0.18230010243356226,0.6006058862641453,0.026735994701646268
1704370120307739100,0.4397392578125,-0.14878712441027164,0.6049500529482961,-0.0026070406932383774
1704370120317715500,0.449715576171875,-0.04352174634039402,0.6049956456556916,-0.030162790812551972
1704370120327691300,0.459691162109375,0.017470190238952635,0.5779816742628813,-0.060234651938639576
1704370120337667600,0.46966748046875,0.05396890607476234,0.5468287033692002,-0.07493018983248621
1704370120347643400,0.479643310546875,0.0666278966397047,0.5320753708735108,-0.11535820794124156
1704370120357619200,0.489619140625,0.07204290742576122,0.4903557055190205,-0.13707345187142492
1704370120367595500,0.499595458984375,0.03457446977496147,0.42549949472695586,-0.15446155331749467
1704370120377571300,0.5095712890625,0.03009586305618286,0.3844043910115957,-0.16914514504522085
1704370120387547100,0.519547119140625,0.0731330407500267,0.3767839791357517,-0.174909371127747
1704370120397523500,0.5295234375,0.1390729551255703,0.39136633897870776,-0.14948332651350646
1704370120407499300,0.539499267578125,0.16694178978204727,0.39123306798785923,-0.12332206295989454
1704370120417475600,0.5494755859375,0.1571504636079073,0.3575619767934084,-0.09172880095280707
1704370120427451400,0.559451416015625,0.11986439678668975,0.36609278151243924,-0.0738844071066007
1704370120437427200,0.56942724609375,0.06810790606439113,0.4134878621548414,-0.06756568894647061
1704370120447403500,0.579403564453125,-0.00414835185110569,0.4113254234239459,-0.0787200105695054
1704370120457379300,0.58937939453125,-0.07457154912054538,0.39687019709199667,-0.08859105091635137
1704370120467355100,0.599355224609375,-0.09861819514036178,0.3585147474735975,-0.11942713788058608
1704370120477331500,0.60933154296875,-0.10219663814902305,0.31482553561180826,-0.18513046702127903
1704370120487307300,0.619307373046875,-0.11000351250767708,0.24967940196245908,-0.2277513189991936
1704370120497283600,0.62928369140625,-0.13041443237364292,0.205920924256742,-0.27954920117780563
1704370120507259400,0.63925927734375,-0.18690905753374099,0.19429039995670316,-0.3036189358122647
1704370120517235200,0.649235107421875,-0.21314064637720584,0.17362053689360618,-0.3326901319958269
1704370120527211500,0.65921142578125,-0.2670914322733879,0.1620949342727661,-0.32280612256955354
1704370120537187300,0.669187255859375,-0.3188146052479744,0.16328151370882987,-0.30141079477611926
1704370120547163100,0.6791630859375,-0.4113654631733894,0.18803221634477377,-0.2981238455273211
1704370120557139000,0.689138916015625,-0.514019781962037,0.22526655297875403,-0.29374047934394326
1704370120567115000,0.699114990234375,-0.6021230128288269,0.26741058122515676,-0.30152379016391934
1704370120577091000,0.709091064453125,-0.674524232172966,0.3053682636976242,-0.3100676735602319
1704370120587067000,0.71906689453125,-0.6627905397593975,0.31398937704861163,-0.2804246688380837
1704370120597043000,0.72904296875,-0.5983247895896434,0.3120212918460369,-0.2672453807260841
1704370120607019000,0.73901904296875,-0.5020926128029823,0.2988704261109233,-0.2614525130709633
1704370120616995000,0.7489951171875,-0.39608723002076146,0.2700052738934755,-0.23135544443838296
1704370120626971000,0.758970947265625,-0.2860480616778135,0.24429332500994205,-0.19971618786510079
1704370120636947000,0.768947021484375,-0.21013211221098899,0.18238105871528387,-0.16458839505631476
1704370120646923000,0.778923095703125,-0.11310790826380253,0.1280804364681244,-0.1147279837463051
1704370120656899000,0.788899169921875,-0.026714988446235655,0.08868073849380016,-0.05984912321977317
1704370120666873900,0.798873779296875,0.0694470457136631,0.045026013423502445,0.014163659506849944
1704370120676850200,0.80885009765625,0.15619710840582846,-0.04603256011754274,0.041094774921797216
1704370120686826000,0.818825927734375,0.15685528005361557,-0.12984160092175007,0.06936835445426404
1704370120696801800,0.8288017578125,0.08605389712154865,-0.20617519127875567,0.0874867794688791
1704370120706778000,0.838778076171875,-0.008189151674509048,-0.2635457224905491,0.07565342607311903
1704370120716754000,0.84875390625,-0.09075462215840815,-0.3175105369120836,0.09614311026372015
1704370120726730000,0.85872998046875,-0.15074702630639075,-0.3853977859631181,0.11469053781274706
1704370120736706000,0.8687060546875,-0.20027298149764536,-0.4745642621472478,0.10400401636455207
1704370120746681900,0.878681884765625,-0.17640870630741118,-0.5524167326346039,0.07410221457574516
1704370120756658200,0.888658203125,-0.11506839468181132,-0.6138856390759349,0.004540712169557809
1704370120766634000,0.898634033203125,-0.012342764222621917,-0.6729571289867162,-0.07387140149455518
1704370120776609800,0.90860986328125,0.1185766950637102,-0.7214286066889762,-0.09698781745955347
1704370120786586000,0.918586181640625,0.20290449904501437,-0.74654317420125,-0.11151957962643355
1704370120796562000,0.92856201171875,0.22798165715634822,-0.752274411329627,-0.1192558364342898
1704370120806538000,0.9385380859375,0.21353227604329586,-0.7483923091992736,-0.1155462413266301
1704370120816514000,0.94851416015625,0.19477964477837084,-0.7212702012568711,-0.09341693670284003
1704370120826489900,0.95848974609375,0.20485329502522945,-0.6993994379714131,-0.06538564149364828
1704370120836466200,0.968466064453125,0.26498306181728837,-0.7103101235643029,-0.049313298821263014
1704370120846442000,0.97844189453125,0.3483627712935209,-0.7081433009192347,-0.07011628674473613
1704370120856417800,0.988417724609375,0.4121908080816269,-0.6980278573572635,-0.07782112550102174
1704370120866394000,0.99839404296875,0.4376093269765377,-0.6726534698650241,-0.0771599216459319
1704370120876370000,1.008369873046875,0.4099930057764053,-0.6155272688031196,-0.08541603760942816
1704370120886346000,1.018345947265625,0.3539262506395578,-0.5579805042415857,-0.07351648710966109
1704370120896322000,1.028322021484375,0.3028063042551279,-0.46618777120709415,-0.03772917094621807
1704370120906297900,1.0382978515625,0.24312018957734108,-0.351632002222538,0.008042692408524453
1704370120916274200,1.048274169921875,0.1770259614229202,-0.23042320508956907,0.07702592000272125
1704370120926250000,1.05825,0.0656084904640913,-0.11795710186064243,0.0856890093319118
1704370120936225800,1.068225830078125,-0.0368605348855257,-0.03630027065426111,0.11575305247772484
1704370120946202000,1.0782021484375,-0.08660159413218498,0.04150952973514795,0.11307564996201544
1704370120956178000,1.088177978515625,-0.08356441839337349,0.08276245436072349,0.09256105052586644
1704370120966154000,1.098154052734375,-0.023292028260231017,0.0961927215591073,0.10077161031458526
1704370120976130000,1.108130126953125,0.10198737931251525,0.09877806187719106,0.11665442176423967
1704370120986105900,1.11810595703125,0.22178280251622198,0.058798518188297746,0.15560520692728458
1704370120996082200,1.128082275390625,0.3189139739692211,0.03436930259168148,0.18545516893099992
1704370121006058000,1.13805810546875,0.4189227466851473,0.006980652667582034,0.20303214401267466
1704370121016033800,1.14803369140625,0.48616556035280223,-0.04641629873812198,0.22485475730746984
1704370121026010000,1.158010009765625,0.4916764327287674,-0.09300210882425308,0.2437285307340324
1704370121035986000,1.16798583984375,0.4224415684610605,-0.1479766848102212,0.297361373254843
1704370121045962000,1.1779619140625,0.33510113866031166,-0.18777151958197355,0.3265623698305338
1704370121055938000,1.18793798828125,0.2159562883198261,-0.20685411345362661,0.3228247176721692
1704370121065913900,1.197913818359375,0.1058107369929552,-0.23657237536907194,0.3138932597303763
1704370121075890200,1.20789013671875,0.024628245300054547,-0.26032997531443836,0.2667016657708213
1704370121085866000,1.217865966796875,-0.0036859950363636014,-0.2803527726456523,0.251335644736886
1704370121095841800,1.227841796875,-0.04331073393821716,-0.28578765717595817,0.20605982127077876
1704370121105818000,1.237818115234375,-0.19519816245138644,-0.30558950523287054,0.15141465990226716
1704370121115794000,1.2477939453125,-0.30463059707283974,-0.2550242701217532,0.0845845917539671
1704370121125770000,1.25777001953125,-0.3908265330135822,-0.16853168932199478,0.05657981922551989
1704370121135746000,1.26774609375,-0.46704643386304373,-0.11008417652845381,0.08491451782807707
1704370121145721900,1.277721923828125,-0.5156161112427711,-0.06714724433869124,0.13946487705260516
1704370121155698200,1.2876982421875,-0.5119073198527098,-0.050314767481386656,0.18464447360262273
1704370121165674000,1.297674072265625,-0.4900537999629974,-0.0630567601546645,0.22625950953885912
1704370121175649800,1.30764990234375,-0.4436392547905445,-0.08991291063725948,0.2809017117653042
1704370121185626000,1.317626220703125,-0.38913434214293957,-0.12215367676764725,0.2982561666700989
1704370121195602000,1.327601806640625,-0.31484745518267154,-0.1646697531968355,0.2738524508409202
1704370121205577000,1.337576904296875,-0.22380115660130975,-0.22999504280537367,0.22294348032604902
1704370121215553000,1.347552978515625,-0.11831599830090998,-0.27999007681310173,0.16327588768564164
1704370121225528800,1.35752880859375,-0.03256371447443962,-0.31954291952252384,0.12497881719097495
1704370121235505200,1.367505126953125,0.004417816442251205,-0.33853988093733783,0.11174867567457258
1704370121245481000,1.37748095703125,0.028667876079678533,-0.3172048319637775,0.09013692865148186
1704370121255457000,1.38745703125,0.019126725274324415,-0.30860505366176366,0.07776910305283963
1704370121265433000,1.39743310546875,-0.017365560820698737,-0.33583588267564773,0.09824548937045037
1704370121275409000,1.407408935546875,-0.018621698361635207,-0.37393326587975023,0.11434468351714312
1704370121285385000,1.417385009765625,-0.008068155643343925,-0.4290829061716795,0.12555004120767116
1704370121295361000,1.427361083984375,0.02111760683059692,-0.4803077742353081,0.10544442443121224
1704370121305336800,1.4373369140625,0.08388765899837017,-0.47886283612400293,0.04769559795893728
1704370121315313200,1.447313232421875,0.15082944389283656,-0.5188385804206133,-0.008357092119939624
1704370121325289000,1.4572890625,0.17356851444542407,-0.5862669797882437,-0.045282947326637804
1704370121335265000,1.46726513671875,0.18131284496188163,-0.6365113123819232,-0.0708303167656064
1704370121345241000,1.477240966796875,0.19995149445831775,-0.62746262126863,-0.08276903023198247
1704370121355217000,1.487216796875,0.21004969462454318,-0.5751780150189996,-0.0912302037809044
1704370121365193000,1.49719287109375,0.19833119978010652,-0.55840136000216,-0.0483998007055372
1704370121375169000,1.5071689453125,0.2060275995016098,-0.5101628142729401,-0.012036255556717515
1704370121385144800,1.517144775390625,0.22342355546057224,-0.4309904933586716,0.03054784460738301
1704370121395121200,1.52712109375,0.21702479433417318,-0.3649327978223562,0.08744655705634503
1704370121405097000,1.537096923828125,0.19527590386271476,-0.3167477358460426,0.15251418210938572
1704370121415073000,1.547072998046875,0.16163082389235495,-0.2808262353762984,0.200736215095222
1704370121425049000,1.557049072265625,0.17188450688123702,-0.2647974761173129,0.2231688500471413
1704370121435025000,1.56702490234375,0.24024492640197276,-0.2692018485561013,0.24294991104435174
1704370121445001000,1.5770009765625,0.32529403039515015,-0.28405484203398224,0.2464046546081081
1704370121454977000,1.58697705078125,0.41192601966559883,-0.29661329483389853,0.21762272369470445
1704370121464952800,1.596952880859375,0.43576340684890746,-0.31702859861403704,0.21735983497481792
1704370121474929200,1.60692919921875,0.4105219980865717,-0.3263432471871376,0.22868396020680665
1704370121484905000,1.616905029296875,0.3682330084115267,-0.3326023075819015,0.2211361386431381
1704370121494881000,1.626881103515625,0.28148528380692006,-0.34374300253838297,0.27021424046903847
1704370121504857000,1.636857177734375,0.24022505265772343,-0.3330786929219961,0.3038454380445182
1704370121514833000,1.6468330078125,0.1663262882322073,-0.32931875586658715,0.3227204535800963
1704370121524809000,1.65680908203125,0.05812661027610302,-0.33316870929300785,0.2946406795866787
1704370121534785000,1.666784912109375,-0.027775895676016807,-0.34366233851760625,0.22222060941159724
1704370121544760800,1.6767607421875,-0.09922551338374615,-0.3776724524080753,0.14965736790616063
1704370121554737000,1.68673681640625,-0.17031798821687696,-0.40668782675117254,0.06601886136326938
1704370121564712700,1.696712646484375,-0.1940232734531164,-0.41856005085259673,0.010052315197885036
1704370121574688800,1.706688720703125,-0.15441490116417408,-0.4096814556092024,-0.0018958602165803312
1704370121584664800,1.716664794921875,-0.09229659090340137,-0.39165830766260623,0.03247683990858495
1704370121594640600,1.726640625,-0.03275719121992588,-0.3754109372168779,0.07109678568206727
1704370121604616700,1.73661669921875,0.04338905987143516,-0.3770578276410699,0.05424933045133948
1704370121614592800,1.7465927734375,0.1454383985042572,-0.3933046135649085,0.03138919080235064
1704370121624568600,1.756568603515625,0.2261351525068283,-0.40978345467895266,0.05903035418279469
1704370121634545000,1.766544921875,0.21485797168910503,-0.4271598291546106,0.11287479362767189
1704370121644520700,1.776520751953125,0.06699789899587631,-0.4418438958063721,0.1680904118278995
1704370121654496800,1.786496826171875,-0.037947745600342746,-0.40367461640983815,0.18417893845010547
1704370121664472800,1.796472900390625,-0.06777998928427696,-0.3359054407805204,0.17922895135991274
1704370121674448600,1.80644873046875,-0.11475918260216712,-0.3258060715705156,0.1651983436482027
1704370121684424700,1.8164248046875,-0.16377601922750473,-0.36603169897496696,0.16386472042426467
1704370121694400800,1.82640087890625,-0.1793447597593069,-0.37680005348771806,0.13458784560076892
1704370121704376600,1.83637646484375,-0.128812257874012,-0.31254706928581,0.02067073984593153
1704370121714353000,1.846352783203125,-0.06391922220289707,-0.2905871664121747,-0.10074110557846724
1704370121724328700,1.85632861328125,-0.052771805244684215,-0.2722942616134882,-0.10938033910803496
1704370121734304800,1.8663046875,-0.0022416414469480514,-0.2310749469965696,-0.07186747779361903
1704370121744280800,1.87628076171875,0.07124737313389777,-0.2377002103552222,0.022447211466543375
1704370121754256600,1.886256591796875,0.1329430740684271,-0.256885972340405,0.15676603086758403
1704370121764232700,1.896232666015625,0.22137188362777233,-0.243368319119513,0.23300050823166965
1704370121774208800,1.906208740234375,0.31225451608002186,-0.23619974266439675,0.24520561754927037
1704370121784184600,1.9161845703125,0.3882143046885729,-0.2563400288954377,0.27690277832224963
1704370121794161000,1.926160888671875,0.491626748368144,-0.2906701685205102,0.25597536030150947
1704370121804136700,1.93613671875,0.5283797312259674,-0.30397739386111494,0.2519762441953644
1704370121814112800,1.94611279296875,0.44179391918480393,-0.41371407212615013,0.23003774943593888
1704370121824088800,1.9560888671875,0.41678573465645313,-0.4239443742394447,0.15029446023330092
1704370121834064000,1.96606396484375,0.36817572526633735,-0.3501367952287197,0.09602755759265273
1704370121844040700,1.976040771484375,0.30807401552498337,-0.3292372150629759,0.07129055468849838
1704370121854015700,1.986015625,0.19174363808333872,-0.36761049259901046,0.0835813695281744
1704370121863991800,1.99599169921875,0.04303951578140258,-0.3825222305268049,0.06729870857335626
1704370121873967600,2.005967529296875,-0.08297229771912097,-0.3635752457335591,0.03817194627765566
1704370121883943700,2.015943603515625,-0.18058803781867025,-0.34003917958438395,-0.00787957426868379
1704370121893919700,2.025919677734375,-0.22181378217637537,-0.3236348650112748,-0.07455551130119711
1704370121903895800,2.035895751953125,-0.23326222790777681,-0.3256663708388805,-0.13723196690138428
1704370121913872000,2.045871826171875,-0.26125088955163955,-0.36982524603903294,-0.14265804707072674
1704370121923847700,2.05584765625,-0.2754746452152729,-0.39552667352855203,-0.1286004052216187
1704370121933823700,2.06582373046875,-0.2670429169565439,-0.36427550295740363,-0.13155414046067743
1704370121943799800,2.0757998046875,-0.1946995652794838,-0.2842500723451376,-0.10902915105018764
1704370121953775600,2.085775634765625,-0.12737199593782425,-0.2411985738649964,-0.010008768317103385
1704370121963751700,2.095751708984375,-0.14141513433754443,-0.25352117208242414,0.10491484759915619
1704370121973727700,2.105727783203125,-0.19852993722259998,-0.274456115822494,0.1537649858880788
1704370121983703800,2.115703857421875,-0.24423136568963527,-0.25965923644602296,0.1396414026632905
1704370121993680000,2.125679931640625,-0.26439444827437397,-0.20127251392900944,0.06948927742019295
1704370122003655700,2.13565576171875,-0.23227087878286837,-0.1507937880575657,0.02395195347368717
1704370122013631700,2.1456318359375,-0.18953589890599248,-0.131027888096869,0.018482399488799272
1704370122023607800,2.15560791015625,-0.13106208262741564,-0.09920914677083492,0.013801694326661526
1704370122033583600,2.16558349609375,-0.0882429315984249,-0.06320698228031396,0.012990304878540337
1704370122043559700,2.1755595703125,-0.048640989050269125,-0.03161678901314735,0.038461832602322096
1704370122053535700,2.18553564453125,-0.0541582911670208,-0.0011415712505578994,0.05888678099364042
1704370122063511800,2.19551171875,-0.06899754838049411,0.008195873676240443,0.10631879611294716
1704370122073488000,2.20548779296875,-0.06941781961917877,-0.016563012266159055,0.15145334794484078
1704370122083463700,2.215463623046875,-0.001554243704676628,-0.03784925366193056,0.13951836080551147
1704370122093439700,2.225439697265625,0.09766133280694485,-0.05551058255881071,0.07989866242744029
1704370122103415800,2.235415771484375,0.19508418068289757,-0.09352700948119164,0.06565495995432138
1704370122113391600,2.2453916015625,0.2656429870307445,-0.1088283312484622,0.056770702155120666
1704370122123367700,2.25536767578125,0.26645371889173985,-0.11488280898183584,0.09091909200511872
1704370122133343700,2.26534375,0.24030104050338266,-0.0684141955345869,0.10937431122604757
1704370122143319800,2.27531982421875,0.20629940218031406,0.0321679931551218,0.1249360009625554
1704370122153296000,2.2852958984375,0.1397644445210695,0.10684300265014171,0.18590766193885355
1704370122163271700,2.295271728515625,0.00652034167945385,0.14775573553591967,0.19588957878164945
1704370122173247700,2.305247802734375,-0.12408639839589596,0.15001462037861346,0.1673012342115864
1704370122183223800,2.315223876953125,-0.2199555870890617,0.15051964729130268,0.09071940471455454
1704370122193199600,2.32519970703125,-0.2512713473290205,0.15274199951589107,0.0031735154695808885
1704370122203175700,2.33517578125,-0.2143669733017683,0.13756518091112374,-0.0621277356762439
1704370122213151700,2.34515185546875,-0.1804378156930208,0.11382044044733047,-0.1325968544466421
1704370122223127800,2.3551279296875,-0.15143150143921374,0.0665603843614459,-0.19812753043416886
1704370122233104000,2.365103759765625,-0.09112345547080039,0.05364361964315176,-0.23694087988790125
1704370122243079700,2.37507958984375,-0.019109189617633818,0.0525394577935338,-0.230383676796779
1704370122253055700,2.3850556640625,0.04527998818457126,0.03385872272104025,-0.1892598219109699
1704370122263031800,2.39503173828125,0.052742579150199885,-0.0236915489718318,-0.15864084829613564
1704370122273007600,2.405007568359375,0.05102817644774914,-0.0901426277399063,-0.1586480086892843
1704370122282983700,2.414983642578125,0.06698094786107539,-0.14833908838182686,-0.215838068767637
1704370122292959700,2.424959716796875,0.10084463901817799,-0.21549071663469074,-0.2122540728010237
1704370122302935800,2.434935791015625,0.10714753855466842,-0.3195674694418907,-0.18336926603503526
1704370122312912000,2.444911865234375,0.09658113635480403,-0.41931671443879603,-0.16851941436231135
1704370122322887700,2.4548876953125,0.08507657652199267,-0.47193888207972046,-0.18783486714176834
1704370122332863700,2.46486376953125,0.01822889965176582,-0.49700756462365386,-0.23872005492225287
1704370122342839800,2.47483984375,-0.08311959723532199,-0.5238438413619995,-0.2764105378258973
1704370122352815600,2.484815673828125,-0.15624971537590027,-0.5187997097149492,-0.29632253172639755
1704370122362791700,2.494791748046875,-0.19961480984985827,-0.5050532161742448,-0.29755002769473937
1704370122372767700,2.504767822265625,-0.23939561609625815,-0.506955250403285,-0.2809041959833354
1704370122382743800,2.514743896484375,-0.26151217083632944,-0.5184665322378278,-0.2514412240032107
1704370122392720000,2.524719970703125,-0.2606950092345476,-0.5288114006415009,-0.20842476030383258
1704370122402695700,2.53469580078125,-0.23997195467948912,-0.5089078457757831,-0.14765687827132642
1704370122412671700,2.544671630859375,-0.20148001919984818,-0.4608285822615027,-0.08391856559328735
1704370122422647800,2.554647705078125,-0.17270283752679824,-0.4142135460808873,-0.025172763972915707
1704370122432623600,2.56462353515625,-0.1837017859250307,-0.3373655764609575,0.006885887056216597
1704370122442599700,2.574599609375,-0.20037761091589926,-0.271604525783658,0.03382766999565065
1704370122452575700,2.58457568359375,-0.2107230638414621,-0.21273761853426693,0.06120473907981067
1704370122462551800,2.5945517578125,-0.1788262888431549,-0.182058110371232,0.11382007512114942
1704370122472527600,2.604527587890625,-0.07641571568250656,-0.17711743909865615,0.18237090264745057
1704370122482503700,2.614503662109375,0.0024538228929042814,-0.18485270952582358,0.25619020862858743
1704370122492479700,2.624479736328125,0.06352291636168957,-0.21082535517215728,0.29258794830795376
1704370122502455800,2.634455810546875,0.159694887393713,-0.21088877579718826,0.27868717752099037
1704370122512431600,2.644431640625,0.21300620634257791,-0.22422347366660833,0.2387330970669165
1704370122522407700,2.65440771484375,0.21495383327901363,-0.2508598439186811,0.20032810921836644
1704370122532383700,2.6643837890625,0.17270108396112918,-0.24497663109898565,0.1647729213103652
1704370122542359800,2.67435986328125,0.11338906329274177,-0.21976532521396874,0.12755370918028056
1704370122552335600,2.684335693359375,0.08710837461054324,-0.1928068834006786,0.11070234495941549
1704370122562312200,2.694312255859375,0.07953881613910198,-0.1850716129735112,0.11393891572784631
1704370122572288000,2.7042880859375,0.07046820545494556,-0.19647358921468258,0.12554306347761301
1704370122582264000,2.71426416015625,0.02192249347269535,-0.19543401703387497,0.12284143983609974
1704370122592240000,2.724240234375,-0.02155599824786186,-0.1716553743004799,0.08428433016575873
1704370122602216200,2.73421630859375,-0.042621582630276676,-0.12183540459871292,0.046081258097477255
1704370122612192300,2.744192138671875,-0.01818506051003933,-0.08476648765951394,-0.031434820042364295
1704370122622168000,2.75416796875,0.03481237018406391,-0.07825579059123992,-0.09017017333395778
1704370122632144100,2.76414404296875,0.1079021563142538,-0.09538286648094653,-0.09006192718651145
1704370122642120200,2.7741201171875,0.20384090311229228,-0.0686518036827445,-0.08947214459981769
1704370122652095000,2.784094970703125,0.2485784549832344,-0.01818155337870121,-0.07317180185783655
1704370122662072000,2.794072021484375,0.2504734749495983,0.033809915143251414,-0.037025406591035426
1704370122672048000,2.804048095703125,0.2036485954105854,0.047886371290683745,-0.013828947659768163
1704370122682023200,2.814023193359375,0.16288637691140173,0.03612783669680357,0.004427241857722401
1704370122691999200,2.823999267578125,0.16331600050032138,-0.0035948096215724945,0.006978241514787077
1704370122701975000,2.83397509765625,0.20908172637522218,-0.08145926280766726,0.0037769247228279707
1704370122711951400,2.843951416015625,0.29239421583414077,-0.14343173485696314,-0.037821160078607495
1704370122721927200,2.85392724609375,0.3469505664080381,-0.18009294777810572,-0.07594291053898632
1704370122731903000,2.863903076171875,0.3535048103570938,-0.2277951946735382,-0.10331004275102168
1704370122741879300,2.87387939453125,0.3073071228057146,-0.27220219941586254,-0.10712762827780097
1704370122751855000,2.883855224609375,0.21333295407891273,-0.32220395542532204,-0.09795509158913046
1704370122761831200,2.8938310546875,0.1472381414026022,-0.37339258313179013,-0.09226243290547281
1704370122771807200,2.90380712890625,0.20606500890254972,-0.4047738098233938,-0.11437270403522998
1704370122781783000,2.913782958984375,0.3021493016511202,-0.439721789085865,-0.13859770229663698
1704370122791759400,2.92375927734375,0.3478320254176855,-0.5152852718532085,-0.10712492486406117
1704370122801735200,2.933735107421875,0.3313181129902601,-0.5529924866959453,-0.06858410874139517
1704370122811711000,2.9437109375,0.2829728920161724,-0.5395832622855902,-0.04030574343595653
1704370122821687300,2.953687255859375,0.18177286368906498,-0.5353980855554342,-0.004239756461605429
1704370122831663000,2.9636630859375,0.04119885635077953,-0.5359267856046557,0.013577676312439143
1704370122841639200,2.97363916015625,-0.09558978722989558,-0.5317576832264661,0.02791113942824304
1704370122851615200,2.983615234375,-0.17042612476646898,-0.4810889877408743,0.03739175568539649
1704370122861591000,2.993591064453125,-0.19480185661017893,-0.44091772087216374,0.025984263018891215
1704370122871567400,3.0035673828125,-0.15609773968458174,-0.4118701978251338,0.03284819397162646
1704370122881543200,3.013543212890625,-0.11151157898306846,-0.40440760685950516,0.027101065154373643
1704370122891519000,3.02351904296875,-0.017340426379442213,-0.4103171231642365,-0.0027695377785712477
1704370122901495300,3.033495361328125,0.11400456484258174,-0.4305351508066058,-0.037361835471168156
1704370122911471000,3.04347119140625,0.25631051054000853,-0.4581809903621673,-0.05981430763471871
1704370122921447000,3.053447021484375,0.3936363297373056,-0.4920508189991116,-0.06805628547500818
1704370122931423200,3.06342333984375,0.5310673628747463,-0.5461559186741709,-0.11720007294826208
1704370122941399000,3.07339892578125,0.6244716227591037,-0.5976768470749259,-0.17234708289168774
1704370122951375400,3.083375244140625,0.669712447977066,-0.6437891944304108,-0.18320348101407288
1704370122961351200,3.09335107421875,0.7028945866107941,-0.6474094307541847,-0.1687991811517626
1704370122971327000,3.103326904296875,0.6928799730747938,-0.6326674964353441,-0.1483149037886411
1704370122981303300,3.11330322265625,0.645970922383666,-0.6423389956220984,-0.12856288622282444
1704370122991279000,3.123279052734375,0.6007879648327827,-0.6855410084888338,-0.1235466654960066
1704370123001255200,3.133255126953125,0.5565127697765827,-0.7172419686540961,-0.14284439995568246
1704370123011231200,3.143231201171875,0.5614958188861608,-0.7782619622841477,-0.2076619592377916
1704370123021207000,3.15320703125,0.6210498316168784,-0.8496227326646447,-0.27558979602754113
1704370123031183400,3.163183349609375,0.6726876643955707,-0.9045210285440087,-0.344630233701691
1704370123041159200,3.1731591796875,0.7209083822071551,-0.9570561024233698,-0.39026743782609696
1704370123051135000,3.183135009765625,0.7290443423897027,-0.9819976514562964,-0.3743183196745813
1704370123061111300,3.193111328125,0.7560463310837745,-1.065211064454913,-0.3697239776216447
1704370123071087000,3.203087158203125,0.7806091099321841,-1.137034191650152,-0.38751521650850773
1704370123081063200,3.213063232421875,0.7871651074469089,-1.1688108474001289,-0.3657526993704959
1704370123091039200,3.223039306640625,0.7930594261825085,-1.1851920733585952,-0.35007089038565753
1704370123101015000,3.23301513671875,0.7914502374202013,-1.220135376445949,-0.325722338809818
1704370123110991400,3.242991455078125,0.7430728677421807,-1.2654136110648513,-0.2828936162348836
1704370123120967200,3.25296728515625,0.6773778680384158,-1.2930033365190028,-0.2517198948141187
1704370123130943000,3.26294287109375,0.5860515834718942,-1.304569855672121,-0.2469130790542811
1704370123140919300,3.272919189453125,0.5069131648272276,-1.3123255843654273,-0.2850894092461094
1704370123150895000,3.28289501953125,0.46944180456697937,-1.341746909160912,-0.2933245189541951
1704370123160871200,3.29287109375,0.462972900813818,-1.3831582392185926,-0.2673780306624248
1704370123170847200,3.30284716796875,0.45926644751131535,-1.4104866833880543,-0.23419348087590186
1704370123180823000,3.312822998046875,0.47424891258776186,-1.425985573554039,-0.22538378615025428
1704370123190799400,3.32279931640625,0.518124879193306,-1.4150985610976814,-0.27383780126105994
1704370123200775200,3.332775146484375,0.5703975027441978,-1.4587076934605836,-0.3131025842767209
1704370123210751000,3.3427509765625,0.5696574980318546,-1.534353301553428,-0.31461627677530046
1704370123220727300,3.352727294921875,0.5498468821465968,-1.5620014791965484,-0.2853748751239851
1704370123230703000,3.362703125,0.5245329926699399,-1.561239554913342,-0.26145457716388626
1704370123240679200,3.37267919921875,0.4944102416068315,-1.5382406643807887,-0.26142546066725625
1704370123250655200,3.3826552734375,0.44640813498198983,-1.535285906228423,-0.2341989059696905
1704370123260631000,3.392631103515625,0.4035685256868601,-1.5284519685551523,-0.17459133642083033
1704370123270607400,3.402607421875,0.3402683121651411,-1.497607040697336,-0.12366596276042982
1704370123280583200,3.412583251953125,0.2755143927037716,-1.4614680980846284,-0.0262474439997226
1704370123290559000,3.42255908203125,0.20241408517956733,-1.4216227021694183,0.08955233369655907
1704370123300535300,3.432535400390625,0.08554244046807288,-1.3825073740944265,0.18091675831638276
1704370123310511000,3.442510986328125,-0.05130991599857807,-1.3703867281898856,0.24480753987608475
1704370123320487200,3.452487060546875,-0.18884967020750046,-1.36223761626482,0.2804877241369337
1704370123330463200,3.462463134765625,-0.32493454943299294,-1.3770660598233342,0.30299218221604823
1704370123340439000,3.47243896484375,-0.4227934506386518,-1.3775924217849969,0.3272241582075134
1704370123350415000,3.4824150390625,-0.49715457187891005,-1.3584785559922457,0.32699023985378445
1704370123360391200,3.49239111328125,-0.5578220988094806,-1.371137254296243,0.3719247756015509
1704370123370367000,3.502366943359375,-0.6023322716653347,-1.455387316866219,0.48126310219876467
1704370123380343300,3.51234326171875,-0.5766968951493502,-1.529651991994679,0.5756666753187776
1704370123390319000,3.522319091796875,-0.4453554110586643,-1.491588803321123,0.5272578510565683
1704370123400295200,3.532295166015625,-0.340029827234149,-1.3450912511527537,0.377935742986761
1704370123410271200,3.542271240234375,-0.45107378870546816,-1.1940402734637259,0.25334855546187607
1704370123420247000,3.5522470703125,-0.7196148352652788,-1.1421773997575044,0.23776353964870794
1704370123430223000,3.56222314453125,-0.9831851076751947,-1.209734393940866,0.39048999453559513
1704370123440199200,3.57219921875,-1.0167617985844613,-1.2967924996688962,0.6181981685128063
1704370123450175000,3.582175048828125,-0.7591314376175403,-1.2366788072288035,0.6943212579242884
1704370123460151300,3.5921513671875,-0.4587491456389427,-0.9994605351716279,0.4995299227081239
1704370123470127000,3.602127197265625,-0.3482943822324276,-0.6771645175486802,0.11717261868575587
1704370123480103200,3.612103271484375,-0.4963724815905094,-0.3631435763180256,-0.2658344179496169
1704370123490079200,3.622079345703125,-0.8514169226050377,-0.10166793809980153,-0.4967111389603466
1704370123500055000,3.632054931640625,-1.2922183236211537,0.16477116774469613,-0.5734091421829536
1704370123510031000,3.642031005859375,-1.694440110874176,0.4538628349021077,-0.5379311842296273
1704370123520007200,3.652007080078125,-2.076204216510057,0.7084545588254928,-0.31269663382433355
1704370123529983000,3.66198291015625,-2.2538141153007745,0.9175424226805567,-0.000007343056239187717
1704370123539959300,3.671959228515625,-2.1587691024720668,1.0959814657717943,0.33925771035049107
1704370123549935000,3.68193505859375,-1.821784634283185,1.2421160298466682,0.6139474522657692
1704370123559910700,3.69191064453125,-1.3629255985289812,1.2966358478024602,0.7740104423195123
1704370123569886700,3.70188671875,-0.8976642945170402,1.2240583951085806,0.8130024362757802
1704370123579862500,3.711862548828125,-0.4938531922459602,1.041656293605268,0.7687170120865107
1704370123589838600,3.721838623046875,-0.18240882350504398,0.8779472021341324,0.6995391387030482
1704370123599814700,3.731814697265625,0.019727029255032537,0.7894491267308592,0.5721721842665225
1704370123609790500,3.74179052734375,0.12488777790665626,0.8079127119213342,0.40078287702370435
1704370123619766800,3.751766845703125,0.06459142237603664,0.8738330448135733,0.2429887452173978
1704370123629742600,3.76174267578125,-0.17281506572961805,0.9379419443696737,0.15317513023614882
1704370123639718700,3.77171875,-0.3851940800845623,0.9835381588965654,0.10769508943483233
1704370123649694700,3.78169482421875,-0.4813976152986288,1.0045417839586734,0.07153623654525727
1704370123659670500,3.79167041015625,-0.3710591717481613,0.9380085798650979,0.08254490261990577
1704370123669646600,3.801646484375,-0.10890227326750755,0.7779340455040336,0.13277685065604747
1704370123679622700,3.81162255859375,0.23717501743733882,0.5993649462923407,0.21925043449439108
1704370123689598500,3.821598388671875,0.5766892963647842,0.513417432154715,0.247004191403836
1704370123699574800,3.83157470703125,0.8976642945170402,0.5267772644653916,0.20362766222041098
1704370123709550600,3.841550537109375,1.1525590930402279,0.5605494779467582,0.15689078975841403
1704370123719526700,3.851526611328125,1.3283844465017318,0.5662722395077348,0.10226879006978123
1704370123729502700,3.861502685546875,1.3343921624839306,0.5650394828423857,0.08120565337277949
1704370123739478500,3.871478515625,1.2076982119381428,0.6326102132901549,0.09941519073694943
1704370123749454600,3.88145458984375,1.0113321747511625,0.7401192786335945,0.15975023431014268
1704370123759430700,3.8914306640625,0.8210019105970859,0.8194321770623326,0.2568731859240681
1704370123769406500,3.901406494140625,0.67533730212152,0.8023477712705731,0.3438989237524569
1704370123779382800,3.9113828125,0.5794242742866277,0.6657242551237345,0.44799460045583545
1704370123789358600,3.921358642578125,0.5800374377489089,0.4827776714801788,0.5261061602707952
1704370123799334400,3.93133447265625,0.668960752826929,0.34876696818023917,0.5119405645351857
1704370123809310700,3.941310791015625,0.7494131766796112,0.24812603504061698,0.44460985338836906
1704370123819286500,3.95128662109375,0.8135872504264116,0.15823387493044136,0.3585383840775117
1704370123829262600,3.9612626953125,0.8569155200213193,0.07370791802853345,0.24102723588608205
1704370123839238700,3.97123876953125,0.887591813313961,-0.028804946462810038,0.10346501411702483
1704370123849214500,3.98121435546875,0.8690548706263304,-0.14658610723465682,0.03326448315493762
1704370123859190800,3.991190673828125,0.8433627954870462,-0.25240619657784696,0.011148476404137908
1704370123869166600,4.00116650390625,0.8261626543611288,-0.31010464456975456,0.02109081928837113
1704370123879142400,4.011142333984375,0.8137503320336341,-0.34420857422351836,0.03859421767718158
1704370123889118700,4.02111865234375,0.785855778414011,-0.39216508814096446,0.030752294838032684
1704370123899094500,4.031094482421875,0.7720107929348945,-0.4502043123945594,0.03484368777093477
1704370123909070800,4.04107080078125,0.7916308546841144,-0.5024252057582139,0.028501097828161435
1704370123919046700,4.051046630859375,0.7883592856675385,-0.5362576249942184,0.05235941591835581
1704370123929022500,4.0610224609375,0.7854144643872976,-0.5558107589870691,0.08989135639257728
1704370123938998800,4.070998779296875,0.7521317879885435,-0.552590043374896,0.12546153180715627
1704370123948974600,4.080974609375,0.6666811174571514,-0.5663441357001662,0.14096216640565543
1704370123958950400,4.090950439453125,0.5732423707813025,-0.5983411562025547,0.13531388571984135
1704370123968926700,4.1009267578125,0.4947288060367107,-0.6444228161588311,0.13935543446191587
1704370123978902500,4.110902587890625,0.4186339928716421,-0.6797612560436129,0.13400679430980234
1704370123988878800,4.12087890625,0.35463586021363736,-0.7237818918168545,0.09506659447285346
1704370123998854700,4.130854736328125,0.2965706247359514,-0.7721452329695224,0.07000730994492768
1704370124008830500,4.14083056640625,0.23954350013434886,-0.8362395194783806,0.06582486402797512
1704370124018806800,4.150806884765625,0.20925123772323131,-0.9282035174265504,0.08907233162727206
1704370124028782600,4.160782470703125,0.24761165577769279,-0.9775713594466447,0.0725669860987924
1704370124038758400,4.17075830078125,0.3188829943090677,-1.0045973135381936,0.032045133960433306
1704370124048734700,4.180734619140625,0.36499592618644233,-1.0158946603611112,0.02942974556395784
1704370124058710500,4.19071044921875,0.3571399519890547,-1.0020721789747475,-0.0003685775840654969
1704370124068686800,4.200686767578125,0.32138650156259535,-1.0064558008864521,-0.05493515729103237
1704370124078662700,4.21066259765625,0.1759071865260601,-0.9639347560212016,-0.06508859477583319
1704370124088638500,4.220638427734375,-0.034957331612706186,-0.8980492021813988,-0.05263363888300955
1704370124098614800,4.23061474609375,-0.31411271116733547,-0.8440542848825454,0.037393472718447444
1704370124108590600,4.240590576171875,-0.6737889036357403,-0.8218976903930306,0.18460074405875057
1704370124118566400,4.25056640625,-1.0322112966507673,-0.8602113466963172,0.35855131662432105
1704370124128541700,4.260541748046875,-1.3032406528949736,-1.0044146504476665,0.4923779685942456
1704370124138517500,4.270517578125,-1.4109931716054678,-1.2095935241654514,0.5440444429455324
1704370124148493600,4.28049365234375,-1.3231915540337562,-1.34989134491086,0.4197441460706293
1704370124158469600,4.2904697265625,-1.2003478491753339,-1.3468071151599288,0.11619221107996999
1704370124168445700,4.30044580078125,-1.2545441342651844,-1.2965668742194771,-0.16292700118273495
1704370124178421500,4.31042138671875,-1.461778771468997,-1.2274322554558514,-0.3540930585738271
1704370124188397600,4.3203974609375,-1.784726530998945,-1.1140908306971191,-0.5159360639121383
1704370124198374400,4.33037451171875,-2.1738199566096066,-0.871886586920917,-0.6059708473633975
1704370124208349700,4.340349609375,-2.483481533586979,-0.48515638331025834,-0.6200372935734689
1704370124218325500,4.350325439453125,-2.732150004941225,-0.04047317242473364,-0.5452439183957875
1704370124228301600,4.360301513671875,-2.942653288552165,0.37783582627624274,-0.38080687797628343
1704370124238277600,4.370277587890625,-2.9992016897261142,0.7502300460204482,-0.1909002460617572
1704370124248253700,4.380253662109375,-2.9128379960030317,1.0522788099065423,-0.04825915012583136
1704370124258229800,4.390229736328125,-2.7194612037599084,1.2377999202132224,0.13494944545477627
1704370124268205600,4.40020556640625,-2.3882231702685353,1.2891679961398244,0.21825864697806535
1704370124278181600,4.410181640625,-1.958750387996435,1.2553384995132684,0.18302783218622207
1704370124288157700,4.42015771484375,-1.4363918167561291,1.098391449522972,-0.002012143540009856
1704370124298133500,4.430133544921875,-0.8663526259303093,0.9111232032880187,-0.3287811418585479
1704370124308109600,4.440109619140625,-0.3146908033162355,0.7286953828215599,-0.6711644734162837
1704370124318085600,4.450085693359375,0.17403554743528366,0.5777341292425989,-1.0330703976981341
1704370124328061700,4.460061767578125,0.5900099657088518,0.45796354821920393,-1.313077133385092
1704370124338037800,4.470037841796875,0.9410136068999767,0.37454905969053504,-1.4847291466847061
1704370124348013600,4.480013671875,1.2370879725515842,0.3467521212264895,-1.5237161722049115
1704370124357989600,4.48998974609375,1.4217980587363241,0.3887438815206289,-1.387392808048427
1704370124367965700,4.499965576171875,1.4233955570608376,0.49550885049849747,-1.103085379492864
1704370124377941500,4.50994140625,1.2795645937532185,0.6769748401954769,-0.7439238585483282
1704370124387917600,4.51991748046875,1.1182026499301194,0.8712976811170577,-0.33699075179919596
1704370124397893600,4.5298935546875,0.9966174207001924,1.0225301528528332,0.052824923671409486
1704370124407869700,4.53986962890625,0.9768377844750881,1.0980477506518362,0.40862982766441996
1704370124417845800,4.549845703125,1.0323843151301144,1.0975792563572526,0.6585541442986578
1704370124427821600,4.559821533203125,1.0888836164653302,1.0278577776163815,0.7865460987657308
1704370124437797600,4.569797607421875,1.191466623583436,0.9453922603756189,0.7813767333038151
1704370124447773700,4.579773681640625,1.286271982437372,0.8693456702664494,0.6990288510933518
1704370124457749500,4.58974951171875,1.3704665154278277,0.7909194915443658,0.5474007676361128
1704370124467725600,4.5997255859375,1.3967080411434172,0.6449342728123069,0.4021117144746706
1704370124477701600,4.60970166015625,1.4090104733556508,0.4795902736157179,0.3162642266454175
1704370124487677700,4.619677734375,1.4110557154476642,0.34593291379809377,0.2568753048159182
1704370124497653800,4.62965380859375,1.3703870204508304,0.24235183555334805,0.23161785823423414
1704370124507629600,4.639629638671875,1.365357794111967,0.17137509605437515,0.2189346465434879
1704370124517605600,4.649605712890625,1.3929144940793514,0.1388502522855997,0.2255411321364343
1704370124527581700,4.659581787109375,1.4064970292299985,0.09811550631523132,0.22719605973660945
1704370124537557500,4.6695576171875,1.3231366089761256,0.03256196090877056,0.20494933927822856
1704370124547533600,4.679533447265625,1.20999713653028,-0.027495325168967244,0.1900369072306901
1704370124557510100,4.68951025390625,1.1060767433285712,-0.016988836462795733,0.12740885734949262
1704370124567486200,4.699486328125,0.995637177491188,-0.019385960732400415,0.06057995824497193
1704370124577462300,4.709462158203125,0.9145090463340282,-0.05413958646655082,0.0089611224276945
1704370124587438300,4.719438232421875,0.8149737363487481,-0.1338537591725588,-0.07165420036911964
1704370124597414100,4.7294140625,0.7210889994710683,-0.22669190960675475,-0.15329145009219647
1704370124607390200,4.73939013671875,0.6460112543940544,-0.32437516198456284,-0.1992288062069565
1704370124617366300,4.7493662109375,0.5850491284310817,-0.42002427818626165,-0.26617183321043847
1704370124627342300,4.75934228515625,0.5132821153372525,-0.540644754037261,-0.3232571542726829
1704370124637318100,4.769318115234375,0.46482758876979346,-0.6336173445060849,-0.3899961831366643
1704370124647294200,4.779294189453125,0.4349637809038162,-0.725379097880423,-0.46093730333298444
1704370124657270300,4.789270263671875,0.4007423623502254,-0.8388654840677976,-0.46650476473439484
1704370124667246300,4.799246337890625,0.3796761934459209,-0.9243146932944655,-0.380411996907182
1704370124677222100,4.80922216796875,0.3720475982636213,-0.9850669758990407,-0.30389914099313314
1704370124687198200,4.8191982421875,0.371636094853282,-1.0471771028533576,-0.22489603916592896
1704370124697174300,4.82917431640625,0.3107166389882564,-1.0786252573013304,-0.08773158454280346
1704370124707150300,4.839150390625,0.21669863111972806,-1.1192585887238382,0.039701603530347344
1704370124717126100,4.849126220703125,0.13507073374688625,-1.1605939309358597,0.13434355198349804
1704370124727102200,4.859102294921875,0.0970879168331623,-1.2115820676341653,0.16505192091483623
1704370124737078300,4.869078369140625,0.05233107573986053,-1.2609466947838663,0.16331987295784056
1704370124747054300,4.879054443359375,-0.03107493722140789,-1.3010484035477041,0.12560968070672823
1704370124757030100,4.889030029296875,-0.15528642330169676,-1.2813780729159712,0.034734683571662754
1704370124767006200,4.899006103515625,-0.2931149313241243,-1.1562754832148552,-0.13663520658463238
1704370124776982300,4.908982177734375,-0.4736790037453174,-0.9556734158933162,-0.2680970108530484
1704370124786958300,4.918958251953125,-0.7523223421245813,-0.7411717102959752,-0.30282447923263534
1704370124796934100,4.92893408203125,-1.1595154880493879,-0.6383993180856108,-0.1628791251867078
1704370124806910200,4.93891015625,-1.6933873869508504,-0.7147741172358393,0.2595399939805269
1704370124816886300,4.94888623046875,-2.061263837009668,-0.9562345569074153,0.7929955671660601
1704370124826862300,4.9588623046875,-2.0566490366905925,-1.1930246666803956,1.1545010208882391
1704370124836838100,4.968838134765625,-1.7002134335786103,-1.3175780980661511,1.2409085537530482
1704370124846814200,4.978814208984375,-1.2414227868855,-1.4017586025312543,1.1208839979685843
1704370124856790300,4.988790283203125,-0.9471014023810624,-1.4838970797747373,0.8871614590726792
1704370124866766300,4.998766357421875,-0.8335498420029878,-1.363624978969991,0.5099301014956087
1704370124876742100,5.0087421875,-0.9240513661831616,-1.087911848823726,0.08848569997888989
1704370124886718200,5.01871826171875,-1.3189642917275428,-0.7859577774837613,-0.18953054687744006
1704370124896694300,5.0286943359375,-1.8179045779794454,-0.4782201543062925,-0.28035014229714866
1704370124906670300,5.03867041015625,-2.1548867080807685,-0.14481822077929973,-0.20059037688374518
1704370124916646100,5.048646240234375,-2.3419202687770126,0.1709068940207362,0.02371550751944305
1704370124926622200,5.058622314453125,-2.3304168779879806,0.444744293422997,0.36030817022901024
1704370124936598300,5.068598388671875,-2.159753437334299,0.6309282515525817,0.7217272973746061
1704370124946574300,5.07857421875,-1.8807044407635927,0.7813900311768055,0.9479653257340193
1704370124956550100,5.088550048828125,-1.5532897649526596,0.8904965948447584,0.994769016354531
1704370124966526200,5.098526123046875,-1.1929554008364678,0.9551906008124351,0.9053888243544846
1704370124976502300,5.108502197265625,-0.8455985917150973,1.0188748452156782,0.6679146047748625
1704370124986478300,5.118478271484375,-0.6428571742773056,1.0980357679530977,0.3997828696683049
1704370124996454100,5.1284541015625,-0.5946113220244645,1.192787058532238,0.10985685231229289
1704370125006430200,5.13843017578125,-0.6415262179344892,1.280341715605557,-0.0857026999305468
1704370125016406300,5.14840625,-0.7030787110060454,1.3683131367862225,-0.17259568735789507
1704370125026382000,5.158382080078125,-0.7329132927775383,1.4559402745738625,-0.16155733853103593
1704370125036358400,5.1683583984375,-0.7300701783061027,1.497692673154175,-0.07856739555737004
1704370125046334200,5.178334228515625,-0.6702659902065992,1.5316796984300016,0.02584167164384853
1704370125056310300,5.188310302734375,-0.5244464834302663,1.5415204167038201,0.13018878865791483
1704370125066286300,5.198286376953125,-0.3429389926791191,1.5032885934650897,0.20221207806775346
1704370125076262100,5.20826220703125,-0.062306526309251785,1.4354852233052253,0.1986878494643606
1704370125086238200,5.21823828125,0.2816653165489435,1.3372455060884356,0.16469720745934172
1704370125096214300,5.22821435546875,0.6466495522975921,1.211046937844157,0.13642993893665262
1704370125106190000,5.238190185546875,1.0114818123549223,1.074208317641914,0.12650578016308137
1704370125116166400,5.24816650390625,1.3409148422509432,0.971196271456778,0.09410603321185335
1704370125126142200,5.25814208984375,1.6670751340866088,0.8791241369590163,0.08734869530559516
1704370125136118300,5.2681181640625,1.9029086737871168,0.7844038260400295,0.09106577046681195
1704370125146094300,5.27809423828125,2.068527106010914,0.7160851998344063,0.12050791885461658
1704370125156070100,5.288070068359375,2.1410031441569326,0.6967164824977516,0.15202977785961702
1704370125166046200,5.298046142578125,2.1017437314361334,0.6864809196874498,0.16450919234026223
1704370125176022300,5.308022216796875,1.9913953510135411,0.6654767101034522,0.1710116878357716
1704370125185998000,5.317998046875,1.8743956960082053,0.6572077711910009,0.18637228377591816
1704370125195974400,5.327974365234375,1.7308435496419667,0.6369198931828141,0.19549195776619016
1704370125205950200,5.3379501953125,1.5736001470535992,0.5933785653591156,0.23867807894404977
1704370125215926300,5.34792626953125,1.4124112217098475,0.5765387819781899,0.26608687660703434
1704370125225902300,5.35790234375,1.3034376367717981,0.5667945098161697,0.33211415873877703
1704370125235878100,5.367878173828125,1.223490239831805,0.551579112766683,0.44177718724571163
1704370125245854200,5.377854248046875,1.1618816326588393,0.49464112775325775,0.5353356147784739
1704370125255830300,5.387830322265625,1.121897997316718,0.3803834649324417,0.6162979609146714
1704370125265806000,5.39780615234375,1.07982002004385,0.1914274117410183,0.7027814816251396
1704370125275782400,5.407782470703125,1.0609247654378413,0.00024140754044055937,0.7640535503201186
1704370125285758200,5.41775830078125,1.0658932015001774,-0.15204232681393623,0.7521713162813335
1704370125295734300,5.427734375,1.0654711766958236,-0.2729702611789107,0.7008985904879868
1704370125305710300,5.43771044921875,1.047165120154619,-0.3704989075168967,0.6052233899969607
1704370125315686100,5.44768603515625,0.9395938032299279,-0.4754083117559552,0.5194649321580306
1704370125325662200,5.457662109375,0.7786199819415808,-0.5707905937150121,0.4714750639602542
1704370125335638300,5.46763818359375,0.6011439386636018,-0.6262777953982352,0.4240961672676727
1704370125345614000,5.477614013671875,0.440699109685421,-0.647069531275332,0.3240717220585793
1704370125355590400,5.48759033203125,0.22954349964559076,-0.6211696586042642,0.25353012257386
1704370125365566200,5.497566162109375,-0.05551613551676273,-0.5648381150513887,0.17081428383383898
1704370125375542300,5.507542236328125,-0.3956178589433431,-0.4886839729145169,0.0702490828115493
1704370125385518300,5.517518310546875,-0.7438134569764137,-0.3831824480012059,0.01653641652017832
1704370125395494100,5.527494140625,-1.114299797272682,-0.34091625467985864,0.027189693285897373
1704370125405470200,5.53747021484375,-1.4765578229278324,-0.3746744396358728,0.12608173693157732
1704370125415446300,5.5474462890625,-1.776132890176773,-0.4586141210824251,0.23506547793745994
1704370125425422000,5.557422119140625,-2.0098674117714164,-0.5933157292559743,0.3638807314861566
1704370125435398400,5.5673984375,-2.1744693604290486,-0.8119920901894568,0.47827268821112806
1704370125445374200,5.577374267578125,-2.225031088408828,-1.0675523668840528,0.5462532415688037
1704370125455350300,5.587350341796875,-2.1096096425056454,-1.274837857492268,0.5002011730331927
1704370125465326300,5.597326416015625,-1.857963616645336,-1.3734692043751477,0.29034247093610466
1704370125475302100,5.60730224609375,-1.6838900752872228,-1.3454232595860958,0.026102482571080325
1704370125485278200,5.6172783203125,-1.5914830097466706,-1.2829966140285134,-0.2595269153032452
1704370125495254300,5.627254150390625,-1.6587877827346325,-1.1758622272163628,-0.4521702056400478
1704370125505230000,5.63722998046875,-1.8316221376866102,-1.0228902183368802,-0.5546967333305627
1704370125515206400,5.647206298828125,-2.017799958336353,-0.7603232777506113,-0.5824837349224835
1704370125525182200,5.65718212890625,-2.146940717512369,-0.4158452389359474,-0.5361565027073025
1704370125535158300,5.667158203125,-2.207760804656148,-0.03003828765004873,-0.42576545218676326
1704370125545134300,5.67713427734375,-2.2224761432290077,0.35100042632073164,-0.2636182762701064
1704370125555110100,5.687110107421875,-2.1786802561223504,0.6302256562411784,-0.08787848220020532
1704370125565085700,5.697085693359375,-2.0144068087667226,0.7974968241080641,0.03632869303114712
1704370125575061500,5.7070615234375,-1.6749351999372244,0.8406240181729197,0.11994330724179744
1704370125585037800,5.717037841796875,-1.2560235591679811,0.7698951159551739,0.10093903930336236
1704370125595013600,5.727013671875,-0.8442448390185833,0.6367816537559032,-0.026811580688506365
1704370125604989400,5.736989501953125,-0.4792120879530906,0.5302969630241394,-0.22335063635483382
1704370125614965800,5.7469658203125,-0.2073041953086853,0.44836043809354303,-0.4443504717998206
1704370125624941600,5.756941650390625,-0.012741992673277854,0.4083618974432349,-0.6618307548165321
1704370125634917400,5.76691748046875,0.06837269448041916,0.38454584530889985,-0.8506967185717076
1704370125644893700,5.776893798828125,0.03617138357758522,0.392110143083334,-0.9734102942444384
1704370125654869500,5.786869384765625,-0.012062193715572357,0.45588206577003,-1.0501042423464357
1704370125664845800,5.796845703125,-0.0673030194222927,0.5832952705010771,-1.0877775549195705
1704370125674821600,5.806821533203125,-0.10119067597687244,0.7023267235949635,-1.0571566450759768
1704370125684797400,5.81679736328125,-0.13304594992101193,0.7602753469556569,-0.8932837413452566
1704370125694773800,5.826773681640625,-0.15225859991312027,0.8130003904491663,-0.645603915702179
1704370125704749600,5.83674951171875,-0.09830956758260727,0.8646528362751007,-0.394819986563921
1704370125714725400,5.846725341796875,0.017166238856315612,0.9173571292415261,-0.1864715428993106
1704370125724702700,5.85670263671875,0.1441273159056902,0.9590265257135033,-0.018561200346052645
1704370125734678500,5.866678466796875,0.3114665805727243,0.9656427289828657,0.10429806740768253
1704370125744654600,5.876654541015625,0.4964321028232574,0.9136939305588603,0.2035001999158412
1704370125754630700,5.886630615234375,0.6843605665326118,0.8527811966955662,0.29994974578022954
1704370125764605400,5.89660546875,0.8942249677181243,0.7786632365614176,0.37578320459537207
1704370125774581800,5.906581787109375,1.0998188519775867,0.6846998814895748,0.4206768968760967
1704370125784557600,5.9165576171875,1.3380600373417137,0.6153852299839258,0.397131624507159
1704370125794534700,5.92653466796875,1.5228560482442377,0.5149027022764087,0.34439065279215575
1704370125804510700,5.9365107421875,1.6157207944244145,0.3939969797432422,0.3090888185907155
1704370125814486500,5.946486572265625,1.7206091558754444,0.30804566621333357,0.27416882331371306
1704370125824462600,5.956462646484375,1.799865063419938,0.26012159326076506,0.2511228787690401
1704370125834438700,5.966438720703125,1.8610662588357925,0.20811083551645276,0.26116781437806785
1704370125844414700,5.976414794921875,1.882083912423253,0.10884966629743575,0.2687125306691974
1704370125854390500,5.986390625,1.8804647867888211,-0.016465104849636553,0.25164193420708175
1704370125864366600,5.99636669921875,1.8744009567052125,-0.1181385959073901,0.21045944446921347
1704370125874342700,6.0063427734375,1.8086966046512125,-0.1774585076212883,0.13271321083530782
1704370125884318500,6.016318359375,1.6897236037462948,-0.20509762517511843,0.08082403364405036
1704370125894294500,6.02629443359375,1.5209060832202435,-0.18602935208976268,0.025511019483953713
1704370125904270600,6.0362705078125,1.2738216661870478,-0.16858488081395626,-0.011386267215386032
1704370125914246700,6.04624658203125,1.0175655161827801,-0.1645528488188982,-0.02424669863656163
1704370125924222700,6.05622265625,0.7815291473865509,-0.16540741982161997,-0.037214682085439564
1704370125934198500,6.066198486328125,0.5650310072749852,-0.18831366363465785,-0.08517251117713749
1704370125944174600,6.076174560546875,0.34084581979215145,-0.26513445298671723,-0.16415069775879382
1704370125954150700,6.086150634765625,0.23698154069185257,-0.371725526702404,-0.19792283817492423
1704370125964126500,6.09612646484375,0.2498720019251108,-0.4648889635682106,-0.25564079458490013
1704370125974102500,6.1061025390625,0.3545329843610525,-0.5786749172240495,-0.2800578813523054
1704370125984078600,6.11607861328125,0.47649406116604803,-0.7360939686402678,-0.21339104094170033
1704370125994054700,6.1260546875,0.5797159507095814,-0.8555223120972514,-0.14438819533158093
1704370126004030700,6.13603076171875,0.6531523583203553,-0.9293804522514343,-0.0845333364907652
1704370126014006500,6.146006591796875,0.6800362735927105,-1.0051537783771753,-0.03665105685330927
1704370126023982600,6.155982666015625,0.6421405504405499,-1.0885577455118298,0.023438706721924243
1704370126033958700,6.165958740234375,0.5721154125779867,-1.1668117825374007,0.06916329686883836
1704370126043934500,6.1759345703125,0.4527490284413099,-1.2065279991149902,0.09483001837115734
1704370126053910800,6.185910888671875,0.304031462135911,-1.164879060909152,0.08926624676417559
1704370126063886600,6.195886474609375,0.2027326496094465,-1.0175722381845116,0.030833420083113013
1704370126073862700,6.205862548828125,0.10953297238647937,-0.8277037463232875,-0.06203359111938625
1704370126083838700,6.215838623046875,-0.026612697115540502,-0.6284583543077111,-0.1690455571282655
1704370126093814500,6.225814453125,-0.28039456596076484,-0.47047173213660715,-0.2534654233071953
1704370126103790600,6.23579052734375,-0.5949655422896146,-0.39372693063020703,-0.2454906085031107
1704370126113766700,6.2457666015625,-0.9565355856806039,-0.4718991345912218,-0.04810596885811537
1704370126123742500,6.255742431640625,-1.2345657605975866,-0.7365253457948565,0.36964240028541534
1704370126133718800,6.26571875,-1.216011866775155,-0.9996578113093971,0.6796325150974094
1704370126143694600,6.275694580078125,-1.0100736991226673,-1.0911223353028296,0.6766983613416552
1704370126153670700,6.285670654296875,-0.9116589175999164,-1.2010752866670489,0.5825780256098136
1704370126163646700,6.295646728515625,-1.0289993488669396,-1.4109914180397987,0.5460070117227733
1704370126173622500,6.30562255859375,-1.2716536744982003,-1.5822461025848984,0.565957291807048
1704370126183598600,6.3155986328125,-1.531919644665718,-1.4998866760671137,0.41767230823263524
1704370126193574700,6.32557470703125,-1.8466613013863562,-1.0931064948573708,0.10418726397696881
1704370126203550500,6.335550537109375,-2.3293074554413558,-0.5523509739220142,-0.1359844510583207
1704370126213526800,6.34552685546875,-2.9104660061746834,-0.07226882513612508,-0.2098832520164549
1704370126223502600,6.355502685546875,-3.3819992300629615,0.3403253030493855,-0.12697243869360536
1704370126233478700,6.365478759765625,-3.4855361769050357,0.717937841963768,0.09478672721870243
1704370126243454700,6.375454833984375,-3.168237236917019,0.9888906258404254,0.36496184125375003
1704370126253430500,6.385430419921875,-2.5998119110286235,1.1304533519551156,0.6639351797498763
1704370126263406600,6.395406494140625,-1.94445532066226,1.0787012451469897,0.8532400463789701
1704370126273382700,6.405382568359375,-1.386397075009346,0.9297712051346898,0.8445515668801963
1704370126283358500,6.4153583984375,-0.9515332473486662,0.8415385026693344,0.7280316582158207
1704370126293334800,6.425334716796875,-0.70223056974411,0.8457251407042146,0.5415129882391542
1704370126303310600,6.435310546875,-0.6027519583821296,0.8714546252444386,0.3976069869339466
1704370126313286700,6.44528662109375,-0.6019172611236572,0.9601660511374474,0.31493462200947103
1704370126323262700,6.4552626953125,-0.6162935770004987,1.082569026491046,0.2712487346159294
1704370126333238500,6.465238525390625,-0.6225245803445577,1.1725152548760176,0.2924955390504561
1704370126343214600,6.475214599609375,-0.6199602828145027,1.2273872472703455,0.353415816899389
1704370126353190700,6.485190673828125,-0.6206324829876423,1.2622443333789706,0.4328150053720921
1704370126363166500,6.49516650390625,-0.5898872161120176,1.2700985540106893,0.46940717164501544
1704370126373142800,6.505142822265625,-0.5038187059432268,1.2880471754163503,0.42639202311988916
1704370126383118600,6.51511865234375,-0.3636626317560673,1.2717486593052745,0.34327611567899585
1704370126393094700,6.5250947265625,-0.1650058532834053,1.2068792967706918,0.25567937302961946
1704370126403070700,6.53507080078125,0.10253741441071033,1.0624731639236211,0.1544945240053348
1704370126413046500,6.545046630859375,0.39463177051544185,0.8922796788692474,0.06764043468311429
1704370126423022600,6.555022705078125,0.6837590935081244,0.7453092484921217,-0.037284916043747215
1704370126432998700,6.56499853515625,0.9532610940545797,0.6194222304150462,-0.10548649174096063
1704370126442974500,6.574974365234375,1.194038519898057,0.5252960859969258,-0.1549130416783504
1704370126452950800,6.58495068359375,1.377189101681113,0.4479591638162732,-0.17047955372044815
1704370126462926600,6.594926513671875,1.5419108773261307,0.37425153804868455,-0.15747962249703704
1704370126472902700,6.604902587890625,1.6150041705876588,0.30704817960858344,-0.11637397912135347
1704370126482878700,6.614878662109375,1.6336398974746464,0.2573115042760968,-0.06394481330187991
1704370126492854500,6.6248544921875,1.5574930618613958,0.22752836043089628,-0.024764201438333838
1704370126502830600,6.63483056640625,1.4231009580284357,0.2716001418694854,0.03218220434356481
1704370126512806700,6.644806640625,1.267470835855603,0.3572720539361238,0.06339275064337999
1704370126522782500,6.654782470703125,1.1657727948784828,0.43645518850535153,0.10195239933067932
1704370126532758800,6.6647587890625,1.1198825658410787,0.45896688004285097,0.16742365501485765
1704370126542734600,6.674734619140625,1.0720324349075556,0.40776276250630616,0.24308446067683398
1704370126552710700,6.684710693359375,1.015696799701452,0.3113575672402978,0.31744269584026186
1704370126562686700,6.694686767578125,0.9716127433031797,0.25695143879204985,0.3752958594698459
1704370126572662800,6.704662841796875,0.9210942699432373,0.23040800752043722,0.4144024562491104
1704370126582638800,6.714638916015625,0.8711194019407034,0.22219693627506493,0.4709682469492778
1704370126592614700,6.72461474609375,0.8068786926984787,0.15668050800859928,0.5193995022390038
1704370126602590700,6.7345908203125,0.7715636336892843,0.05807867948114872,0.5730795449024066
1704370126612566800,6.74456689453125,0.7943897980034351,-0.06844692876040935,0.5941952885694801
1704370126622542600,6.75454248046875,0.8373457271546125,-0.19500234761834143,0.594103774361126
1704370126632518700,6.7645185546875,0.8434007894098758,-0.31862346659004687,0.5711750629879534
1704370126642494700,6.77449462890625,0.8562713768988848,-0.44047962171584365,0.5592020453931763
1704370126652470800,6.784470703125,0.870208132314682,-0.5169321622774005,0.5471291476204991
1704370126662446800,6.79444677734375,0.8531038527786731,-0.5360337531104683,0.5395487754940986
1704370126672422700,6.804422607421875,0.8222042721241712,-0.556556901179254,0.5027616346383467
1704370126682398700,6.814398681640625,0.742108406624198,-0.5369324555158614,0.39078967160191386
1704370126692374800,6.824374755859375,0.6109364338815212,-0.44865912877917286,0.25075466651115563
1704370126702350800,6.834350830078125,0.4323357704877853,-0.37176556645184755,0.12518274226523934
1704370126712326700,6.84432666015625,0.20101473977565765,-0.30259003115594385,0.053815980535373086
1704370126722302700,6.854302734375,-0.012706336838006973,-0.2694482245326042,0.07428432967700063
1704370126732278800,6.86427880859375,-0.21337503965497015,-0.2915028199523687,0.2139370574519038
1704370126742254800,6.8742548828125,-0.4186795855790376,-0.41237873186916113,0.43783590227402747
1704370126752230700,6.884230712890625,-0.6669687022268772,-0.6044149231582879,0.6047936202775687
1704370126762206700,6.894206787109375,-0.9057488167732953,-0.8783294794499874,0.6678417587343602
1704370126772182800,6.904182861328125,-1.11795890430212,-1.1052470145061613,0.5615189805660397
1704370126782158800,6.914158935546875,-1.2718208477586508,-1.1609203864112496,0.22901384974829853
1704370126792134700,6.924134765625,-1.4529998372077941,-1.064170907752216,-0.22439057386182248
1704370126802110700,6.93411083984375,-1.8170616974145173,-0.9638540920004248,-0.5821311220925302
1704370126812086800,6.944086669921875,-2.348245380145311,-0.9014420594900846,-0.8717587227575481
1704370126822062800,6.954062744140625,-2.886123007556796,-0.7793339754298328,-1.1051997412983328
1704370126832038700,6.96403857421875,-3.207282130104303,-0.49432490141093727,-1.2162103119567036
1704370126842014700,6.9740146484375,-3.2584505918055773,-0.10214929187595843,-1.1335304213128983
1704370126851990800,6.98399072265625,-3.1031746898978945,0.2451367900967598,-0.8868123533740639
1704370126861966800,6.993966796875,-2.7580618603110314,0.5075643222123384,-0.602432882495597
1704370126871942700,7.003942626953125,-2.3259020309120415,0.7119026534527539,-0.3685659666929394
1704370126881918700,7.013918701171875,-1.9040601819097995,0.8022408037647605,-0.2087934840183705
1704370126891894800,7.023894775390625,-1.5401041201651096,0.7989210116922855,-0.13400098562352358
1704370126901870800,7.033870849609375,-1.1567355019420384,0.7960095081597566,-0.15636910397186873
1704370126911846700,7.0438466796875,-0.7973696905970573,0.7837439008265733,-0.26469277363382276
1704370126921822700,7.05382275390625,-0.4800321721643209,0.7409121825769543,-0.40697416941188275
1704370126931798800,7.063798828125,-0.22879998780190944,0.7031953231230378,-0.6120662416290491
1704370126941774800,7.07377490234375,-0.07195581366419791,0.6974383670315146,-0.9016811289429664
1704370126951750700,7.083750732421875,-0.03661678925752639,0.6893912541761994,-1.1692480697736143
1704370126961726700,7.093726806640625,-0.06782090581655502,0.7452052035957575,-1.368852650490403
1704370126971702800,7.103702880859375,-0.1187993979036808,0.8496317927539349,-1.4125142436929046
1704370126981678800,7.113678955078125,-0.1652373239517212,0.9750675599321722,-1.2809276987999676
1704370126991654700,7.123654541015625,-0.18508651828169823,1.0691063183277845,-1.0194017186339943
1704370127001630700,7.133630615234375,-0.11957622749507427,1.1325707825005054,-0.6658487582862377
1704370127011606800,7.143606689453125,0.01851999155282974,1.1506877462103962,-0.33758141116872425
1704370127021582800,7.153582763671875,0.2616068633824587,1.1613844967916607,-0.08000687204226851
1704370127031558700,7.16355859375,0.5052180513471365,1.1347264992296695,0.14152005601674317
1704370127041534700,7.17353466796875,0.785150845015049,1.0687018291801214,0.37423305254392325
1704370127051510800,7.1835107421875,1.0562959365934133,0.9685857966974377,0.5901100650824606
1704370127061486800,7.19348681640625,1.2868313698858023,0.8451093468934298,0.7264628745291382
1704370127071462700,7.203462646484375,1.506260887274146,0.7086863217547535,0.7840318509224802
1704370127081438700,7.213438720703125,1.7273083612531424,0.5516626993969083,0.799726994312927
1704370127091414800,7.223414794921875,1.8772937555372713,0.38426439801901574,0.7323623078312724
1704370127101390800,7.233390869140625,1.9824001436531542,0.20621113937497138,0.6284382613677532
1704370127111366700,7.24336669921875,2.0730933910131455,0.02651128256767988,0.5227504931673407
1704370127121342700,7.2533427734375,2.127660262981057,-0.1184612519904971,0.3875394741669297
1704370127131318800,7.26331884765625,2.0685650999337435,-0.23935966800004244,0.2839122917581349
1704370127141294600,7.273294677734375,1.9257570499330758,-0.32975247110873457,0.20948526567481457
1704370127151270700,7.283270751953125,1.6817998250097035,-0.336137495970726,0.12845708776079118
1704370127161246700,7.293246826171875,1.3977894066393375,-0.2634378782019019,0.06810717541202903
1704370127171222800,7.303222900390625,1.1273749674230813,-0.17902327271997928,0.05711304931938648
1704370127181198800,7.31319873046875,0.8996645284235477,-0.12078326519727706,0.047830257189273834
1704370127191174700,7.323174560546875,0.7044254494398832,-0.09823182617127894,0.00004683481641113758
1704370127201150700,7.333150634765625,0.5578408035099506,-0.08894289656132459,-0.06278554199784994
1704370127211126800,7.343126708984375,0.40241877112984653,-0.10800386312305926,-0.12354169705994426
1704370127221102600,7.3531025390625,0.26700083138048647,-0.127159814491868,-0.17782434525899588
1704370127231078700,7.36307861328125,0.1465618495762348,-0.13764292232245207,-0.24811346781998872
1704370127241054700,7.3730546875,0.08428864101469516,-0.2030930073544383,-0.2874979682251811
1704370127251030800,7.38303076171875,0.08549743228256702,-0.31639293105900285,-0.29069077291712164
1704370127261006800,7.3930068359375,0.08212298741340637,-0.4920040572479367,-0.25890450908858326
1704370127270982700,7.402982666015625,0.13826514587402344,-0.6645555036053061,-0.21349738739300517
1704370127280958700,7.412958740234375,0.22668284951746462,-0.7811518385067582,-0.21319157284684478
1704370127290934800,7.422934814453125,0.390702029851079,-0.8813023577809334,-0.23407741674818097
1704370127300910600,7.43291064453125,0.5843757592141627,-1.0069245874419808,-0.22368805161565541
1704370127310886700,7.44288671875,0.7360919228136539,-1.1634686095893383,-0.1645035297844559
1704370127320862700,7.45286279296875,0.7829062809586524,-1.30061790317595,-0.12720160780698062
1704370127330838800,7.4628388671875,0.7166887186855078,-1.3623182802855969,-0.11746511709261685
1704370127340814800,7.47281494140625,0.5539905578225851,-1.3943983028963207,-0.09829502760060131
1704370127350790700,7.482790771484375,0.40040626226365567,-1.346029116524756,-0.08643577257860452
1704370127360766700,7.4927666015625,0.2549900755912065,-1.2576578823715447,-0.07278393505141138
1704370127370742800,7.50274267578125,0.11499708301126957,-1.1252806254923342,-0.06007768954494968
1704370127380718600,7.512718505859375,-0.11774375137090683,-0.9465671493738889,-0.06550239974111319
1704370127390695000,7.52269482421875,-0.43368952318429943,-0.7270011461243033,-0.052071146162040526
1704370127400671700,7.532671630859375,-0.7898363724827766,-0.5356199116125703,0.0003672806761227548
1704370127410647600,7.5426474609375,-1.151488248938322,-0.41604894481450316,0.14610758473640306
1704370127420624000,7.552623779296875,-1.429737619563937,-0.5110922040775417,0.4614501482259482
1704370127430599700,7.562599609375,-1.4733055431336164,-0.7938838943079114,0.8898051785144955
1704370127440575700,7.57257568359375,-1.2441460743695496,-0.998761154730618,1.1541900552429258
1704370127450551800,7.5825517578125,-0.933892376717925,-1.053860818400979,1.147907833168283
1704370127460527600,7.592527587890625,-0.7619634461730718,-1.0840575114831328,1.031627578478679
1704370127470503700,7.602503662109375,-0.7302069564282894,-1.1323463260948656,0.8286054444033653
1704370127480479700,7.612479736328125,-0.7611041989952325,-1.0523232335701584,0.5339172724131495
1704370127490455600,7.62245556640625,-0.9511673366457223,-0.8525839205577969,0.24120454694805665
1704370127500432000,7.632431884765625,-1.400632521110773,-0.5530734429776668,0.05729095403640531
1704370127510407700,7.64240771484375,-1.9561755690723657,-0.18691344144791364,-0.01998136477570515
1704370127520383700,7.6523837890625,-2.3730752854973076,0.1529886677533388,-0.005993463694560341
1704370127530359800,7.66235986328125,-2.5486808587282894,0.4564294705197215,0.14597483433536254
1704370127540335600,7.672335693359375,-2.4912048213154074,0.6419651938736438,0.3595031009238213
1704370127550311700,7.682311767578125,-2.299748183479905,0.7168538461193442,0.5574445342013612
1704370127560288300,7.692288330078125,-2.1226877352654934,0.7606696069702505,0.6293669935852289
1704370127570264300,7.702264404296875,-2.057450416201353,0.8657023453280329,0.49367604558076705
1704370127580240100,7.712240234375,-2.026242792510986,1.0028411175206302,0.25531897875200954
1704370127590216400,7.722216552734375,-1.9375585468858478,1.1153028368353843,0.05273453284106217
1704370127600192300,7.732192138671875,-1.8066326578587293,1.1856018232032657,-0.0849051380783785
1704370127610168300,7.742168212890625,-1.6374983264684677,1.2210264800667763,-0.09118185286084189
1704370127620144400,7.752144287109375,-1.4136866484731434,1.2587369097799062,-0.0028697376168798656
1704370127630120200,7.7621201171875,-1.1917670678347347,1.3015809029892087,0.09587330774585716
1704370127640096300,7.77209619140625,-0.9690361708134412,1.2749898331835865,0.19250059393048286
1704370127650072300,7.782072265625,-0.6926023251771927,1.22064654083848,0.2354773649402894
1704370127660048100,7.792048095703125,-0.38566462020576,1.1725012263506651,0.2060341571065597
1704370127670024400,7.8020244140625,-0.13159458206892014,1.115351936674118,0.1271763089689426
1704370127680000300,7.812000244140625,0.0800999571532011,1.048754435172677,0.025172910103388128
1704370127689976300,7.821976318359375,0.24660920073688028,1.0142971620365977,-0.08176071170596405
1704370127699952400,7.831952392578125,0.36751813814044,0.9705012749299406,-0.14792939333608374
1704370127709928200,7.84192822265625,0.5274924269974232,0.9311644130587577,-0.1518685502827633
1704370127719904300,7.851904296875,0.7541326064169407,0.8946049069464206,-0.10487615042342804
1704370127729880300,7.86188037109375,1.0145020369589328,0.8522992583975195,-0.019340256143861916
1704370127739856100,7.871856201171875,1.2781553114771842,0.8075456321746111,0.07352838304343168
1704370127749832400,7.88183251953125,1.5046598818182944,0.7350003281846642,0.17248398887803776
1704370127759808300,7.891808349609375,1.6818600307643412,0.6774044637843966,0.20717110698092728
1704370127769784300,7.901784423828125,1.7993425008505581,0.637348932249844,0.26445182275110857
1704370127779760400,7.911760498046875,1.888883655565977,0.6039408759057522,0.3194123884780332
1704370127789736200,7.921736083984375,1.902155225071311,0.5938780393138527,0.3494875010071322
1704370127799712300,7.931712158203125,1.8376994117736816,0.5742345966890454,0.36542375967707486
1704370127809688300,7.941688232421875,1.6816040101766585,0.5326663225039839,0.37505697268005456
1704370127819664100,7.9516640625,1.4739742361754178,0.534689645025134,0.32600437062159177
1704370127829640400,7.961640380859375,1.2609779667049645,0.5635851923808455,0.22700581612782553
1704370127839616300,7.9716162109375,1.005695045647025,0.5339329814389348,0.14842148770196362
1704370127849592300,7.98159228515625,0.7367378195017575,0.4731839137047529,0.11403455812204628
1704370127859568400,7.991568359375,0.547942509829998,0.4334878631323576,0.10962196584418415
1704370127869544200,8.001544189453124,0.4613023372530937,0.37908699538111684,0.10318941204603761
1704370127879520300,8.011520263671875,0.4723579842746258,0.2544470547556877,0.12721702457182107
1704370127889496300,8.021496337890625,0.5454717358022928,0.08298486493974924,0.19057004599301144
1704370127899472100,8.03147216796875,0.6445172164440155,-0.09744652101248502,0.2553558949626051
1704370127909448400,8.041448486328125,0.7699503532737493,-0.2051493553623557,0.2843719816917553
1704370127919424300,8.05142431640625,0.8313017708152532,-0.26641660175174475,0.29502032655403015
1704370127929400300,8.061400390625,0.7698878094315529,-0.31825346423387524,0.31752029112111774
1704370127939376400,8.07137646484375,0.6115478437781333,-0.3376546225354075,0.3695355789100751
1704370127949352200,8.081352294921874,0.3916249899148941,-0.3291480754747987,0.4090261700382456
1704370127959328300,8.091328369140625,0.19600714074671266,-0.3215001910701394,0.3954462287034839
1704370127969304300,8.10130419921875,0.059121466532349586,-0.3089969755887985,0.32829693853817876
1704370127979280100,8.111280029296875,-0.008676642930507659,-0.2969397503092885,0.23519509566649793
1704370127989256400,8.12125634765625,-0.08007073105871677,-0.29907676233798264,0.15296963425930588
1704370127999232300,8.131232177734375,-0.1459305659353733,-0.269741362260282,0.07683156647440045
1704370128009208300,8.141208251953126,-0.22582944755852222,-0.19139000234007833,0.01846325639691204
1704370128019184400,8.151184326171874,-0.3082692458361387,-0.1301388303026557,0.05079268719144165
1704370128029160200,8.16116015625,-0.4045604593336582,-0.10719809969812631,0.16359854376874863
1704370128039136300,8.17113623046875,-0.4924076696127653,-0.17800883498042822,0.3687011373799294
1704370128049112300,8.1811123046875,-0.5617278740763664,-0.39753509074151516,0.6163930918522179
1704370128059088100,8.191088134765625,-0.636354952776432,-0.8015487298473716,0.8833967727769165
1704370128069064400,8.201064453125,-0.6385393110781907,-1.190808159674704,0.9693748281832784
1704370128079040300,8.211040283203126,-0.5359264933437109,-1.2731681707143783,0.6373065544128418
1704370128089016300,8.221016357421876,-0.6027899523049592,-1.1085182912617921,0.03869783331528306
1704370128098992400,8.230992431640624,-0.9680074122875928,-0.9311118060886859,-0.38660562738291915
1704370128108968200,8.24096826171875,-1.470553614076972,-0.6951701298385858,-0.5691278481345623
1704370128118944300,8.2509443359375,-2.1208669495791197,-0.3814218680694699,-0.6561061666246503
1704370128128920300,8.26092041015625,-2.845810870912671,0.020555881294608114,-0.6392306543432176
1704370128138896100,8.270896240234375,-3.320115313079953,0.483003004668653,-0.5894431986715645
1704370128148872400,8.28087255859375,-3.5453976481497285,0.9089061117604375,-0.5631214473266154
1704370128158848300,8.29084814453125,-3.5057775854229924,1.1828496018856762,-0.43170236795507366
1704370128168824300,8.30082421875,-3.1434979324579237,1.3134993043199181,-0.17713848188668488
1704370128178800400,8.31080029296875,-2.486290161266923,1.2665662882313131,0.01395158765874803
1704370128188776200,8.320776123046874,-1.7213637736350298,1.0118240499213338,0.10444346722774207
1704370128198752300,8.330752197265625,-0.9740811792433262,0.7342652919083833,0.04047872538268566
1704370128208728300,8.340728271484375,-0.3432815225064754,0.5321297314092517,-0.13072028345242143
1704370128218704100,8.3507041015625,0.1618026733279228,0.40119390551000833,-0.3894993760630488
1704370128228680400,8.360680419921875,0.48307460860013957,0.3309343743696809,-0.7128489943921565
1704370128238656300,8.37065625,0.5838724858671427,0.23963731589764356,-1.009575248081237
1704370128248632300,8.38063232421875,0.5157382763177156,0.20196312654167412,-1.2629749857410788
1704370128258608400,8.3906083984375,0.3920470147192478,0.2845399952024221,-1.4146324048906564
1704370128268584200,8.400584228515624,0.266166134122014,0.44500557470768687,-1.4272458027482031
1704370128278560300,8.410560302734375,0.1746124705404043,0.5792769747704267,-1.2607260377705096
1704370128288536300,8.420536376953125,0.16920213592946529,0.6595122487410903,-0.9488748417943715
1704370128298512100,8.43051220703125,0.27136370276510713,0.6940595382481813,-0.5501147393025457
1704370128308488400,8.440488525390625,0.4065063327044248,0.7265846742779016,-0.21079262194633483
1704370128318464300,8.45046435546875,0.5439356122761965,0.7627513816803694,0.009673106621950865
1704370128328440000,8.460440185546876,0.6701087538182735,0.7539931979462504,0.13806209758259355
1704370128338416400,8.47041650390625,0.8103542598545551,0.713513888041675,0.219691602390632
1704370128348392200,8.48039208984375,0.9985860904246568,0.6414534449592232,0.2434356852672994
1704370128358368500,8.490368408203125,1.2154793673336506,0.5561319537654519,0.22054010897874832
1704370128368344300,8.50034423828125,1.394705469149351,0.42073038062900303,0.17758228013142943
1704370128378320100,8.510320068359375,1.5470903257906437,0.276632583078742,0.13799853082709013
1704370128388296400,8.52029638671875,1.7132623002439735,0.14534545952379702,0.09780161806046962
1704370128398272300,8.530272216796876,1.8335557360976933,0.011593114899098872,0.059783949029073115
1704370128408248000,8.540248046875,1.8796482097089289,-0.1058870170995593,0.03151303637772798
1704370128418224400,8.550224365234374,1.8551333616554735,-0.16590017177462577,-0.04265300068184733
1704370128428200200,8.5602001953125,1.7820161029964685,-0.1880418609559536,-0.11793269807174801
1704370128438176500,8.570176513671875,1.6080284863561392,-0.20244623388350008,-0.13496493528485298
1704370128448152300,8.58015234375,1.3488532340347765,-0.20637042158991098,-0.055942288506962354
1704370128458128100,8.590128173828125,1.0285270551800727,-0.17412527154535054,-0.02434051439985633
1704370128468104400,8.6001044921875,0.7609697589606046,-0.130104635772109,-0.03334394159931689
1704370128478080300,8.610080322265626,0.5545826784968376,-0.14318535888046025,-0.0533468651862815
1704370128488056000,8.62005615234375,0.37528760309815407,-0.21663345692902802,-0.05977046849299222
1704370128498032400,8.630032470703124,0.2160661784350872,-0.2831085010945797,-0.08230064553525299
1704370128508008200,8.64000830078125,0.025496844828128813,-0.333246742965281,-0.1401342276815325
1704370128517984500,8.649984619140625,-0.14997019671499728,-0.349392114341259,-0.18877006563264875
1704370128527960300,8.659960205078125,-0.2972469165623188,-0.3421694696113467,-0.22152659926544874
1704370128537936100,8.66993603515625,-0.32556349498629567,-0.3499140923887491,-0.20956088819429278
1704370128547912400,8.679912353515626,-0.2537029583901167,-0.41920623980164523,-0.14930691050067543
1704370128557888300,8.68988818359375,-0.09581015198230743,-0.5281166963756084,-0.09361556454747914
1704370128567865000,8.699864990234374,0.1218880115687847,-0.6771095724910497,-0.05975359042342752
1704370128577841200,8.709841064453125,0.324721783465147,-0.790797910991311,-0.08466500004641711
1704370128587817200,8.719817138671875,0.4275999741375446,-0.9301704335853457,-0.08137096346970647
1704370128597792300,8.729792236328125,0.44372459498643874,-1.0456295811504126,-0.07890289285574108
1704370128607769000,8.73976904296875,0.429236635428667,-1.135813125422597,-0.12164112413562833
1704370128617745200,8.7497451171875,0.39490708032548427,-1.205315992976725,-0.1548161389088258
1704370128627721000,8.759720947265626,0.3590688742250204,-1.2702674808368086,-0.15301113531347363
1704370128637697300,8.769697265625,0.31284254510104653,-1.2735054398447274,-0.17957988368943334
1704370128647673000,8.779673095703124,0.2651461434245109,-1.2119748663440346,-0.24245365196000784
1704370128657649200,8.789649169921875,0.22955402103960512,-1.0709212587952612,-0.3440950673790648
1704370128667625200,8.799625244140625,0.0721872843325138,-0.8842419183641672,-0.4190322349416092
1704370128677601000,8.80960107421875,-0.1652542750865221,-0.6970709950238466,-0.5092941051470116
1704370128687577000,8.8195771484375,-0.49222120712995526,-0.5692001096531748,-0.4820148704141378
1704370128697553200,8.82955322265625,-0.8332078966975212,-0.5990501812547445,-0.23330975684393196
1704370128707529000,8.839529052734376,-1.0679781910806894,-0.8409259237289428,0.17737671108935027
1704370128717505300,8.84950537109375,-1.093244149762392,-1.1307143409788607,0.5517677672065794
1704370128727481000,8.859481201171874,-0.8783364937126636,-1.2979255953520537,0.7073824726145714
1704370128737457200,8.86945703125,-0.7231091071218252,-1.405830089753866,0.636127939087525
1704370128747433200,8.87943310546875,-0.7451163562685251,-1.5170897398024796,0.45210053793732075
1704370128757409000,8.889408935546875,-0.9606430209994316,-1.485488148358464,0.1452298703201115
1704370128767385000,8.899385009765625,-1.4574977331489323,-1.116437686084211,-0.20167817212045192
1704370128777361200,8.909361083984376,-2.2009493710756303,-0.6088146194219589,-0.41467166511192916
1704370128787337000,8.9193369140625,-2.966266219329834,-0.1598345881253481,-0.4327555668024346
1704370128797313300,8.929313232421874,-3.502977141049504,0.2448971361219883,-0.22456377500426022
1704370128807289000,8.9392890625,-3.518279924121499,0.6370753760054707,0.21414054413475095
1704370128817265200,8.94926513671875,-3.0542016924142836,0.9005340047344564,0.7977667270906269
1704370128827241200,8.9592412109375,-2.2699463349342346,1.0291954559609293,1.2046011227056383
1704370128837217000,8.969217041015625,-1.4199281732112168,0.9497145074889063,1.433023070975393
1704370128847193000,8.979193115234375,-0.7734469632178544,0.7419149298787117,1.4914550939388573
1704370128857169200,8.989169189453126,-0.40546062304377556,0.5617623608678579,1.3535760247729718
1704370128867145000,8.99914501953125,-0.21847850027382373,0.4810498247742653,1.031972373328358
1704370128877121300,9.009121337890624,-0.18659224666953086,0.47486003022342915,0.6506337996281683
1704370128887097000,9.01909716796875,-0.23741233332455156,0.5206213721841574,0.2900646769080311
1704370128897073200,9.0290732421875,-0.3430032900869846,0.5924868772163987,0.06885898016002029
1704370128907049200,9.03904931640625,-0.4703945752471685,0.6779802178457379,-0.07389872789289802
1704370128917025000,9.04902490234375,-0.5675707548856734,0.7726745175406337,-0.13809289457965643
1704370128927001000,9.0590009765625,-0.6073311028659344,0.8219836151108145,-0.13661642881892622
1704370128936977200,9.06897705078125,-0.5160971727579832,0.8581257725939154,-0.08585738816875964
1704370128946953000,9.078952880859376,-0.3915922566890716,0.9028636167258024,-0.058189263716153794
1704370128956929300,9.08892919921875,-0.26407296123504637,0.9600725276350974,-0.08275547663066536
1704370128966905000,9.098905029296875,-0.14132570248842238,1.050711122198403,-0.11792308999318629
1704370128976881200,9.108881103515625,-0.050906011372804635,1.132705807057023,-0.1722220317399129
1704370128986857200,9.118857177734375,0.024062428110837936,1.1901055643633007,-0.16490699601881206
1704370128996833000,9.1288330078125,0.17426409549415112,1.1953928571164607,-0.0677823273718357
1704370129006809000,9.13880908203125,0.41129882767796516,1.15718938318938,0.031607162668276574
1704370129016785200,9.14878515625,0.6973971582382917,1.0572814404994249,0.1114007938186638
1704370129026761000,9.158760986328126,0.9992010074526071,0.9601184126034379,0.20368799583921207
1704370129036737300,9.1687373046875,1.2948545173436403,0.9313310017973184,0.250761023186706
1704370129046713000,9.178713134765625,1.5458984856575726,0.9210299725353718,0.2575774252032861
1704370129056689000,9.18868896484375,1.693977169537544,0.8849971206456422,0.30117039188267664
1704370129066665200,9.198665283203125,1.7533856363177298,0.8118927214682101,0.3534461024397984
1704370129076641000,9.20864111328125,1.750199992018938,0.7183338555440306,0.3870588145105168
1704370129086617300,9.218617431640626,1.7125544442355631,0.6325371480539441,0.3817534015787765
1704370129096593200,9.22859326171875,1.648376278835535,0.537511424447596,0.2598681299563497
1704370129106569000,9.23856884765625,1.504423734974861,0.44457039816081523,0.13454749532407148
1704370129116545300,9.248545166015624,1.3769465250968933,0.3813523099645972,0.0023018106689676643
1704370129126521000,9.25852099609375,1.2401245637685059,0.3375315806776285,-0.09526166952038183
1704370129136497000,9.268496826171875,1.1341168428987265,0.2834723659709096,-0.11529683314282446
1704370129146473200,9.27847314453125,1.0375807147294283,0.24700141492486,-0.07788282909300177
1704370129156449000,9.288448974609375,0.9150672647386788,0.1759402120128274,-0.012279453195445239
1704370129166425300,9.29842529296875,0.7959241679638623,0.09794278009682893,0.05073339475225657
1704370129176401200,9.308401123046876,0.7191139000058173,0.039834874521195884,0.08471282124351709
1704370129186377000,9.318376953125,0.6232534791409969,-0.012468436428904533,0.12178239576984196
1704370129196353300,9.328353271484374,0.539725301104784,-0.09585019173175095,0.17096377530712634
1704370129206329000,9.3383291015625,0.504120319238305,-0.19470219562798738,0.20221845300961286
1704370129216305000,9.348304931640625,0.5566530550301074,-0.297037657725811,0.17245627888720483
1704370129226281200,9.35828125,0.5982178220838308,-0.4325239865362644,0.14974669015742836
1704370129236257000,9.368257080078125,0.6358002415031194,-0.5656029619440436,0.12164843065924942
1704370129246233300,9.3782333984375,0.6805974146068096,-0.6479024749681354,0.07178498714193701
1704370129256209200,9.388209228515626,0.729638801151514,-0.729741384743154,0.05574764271769672
1704370129266185000,9.39818505859375,0.6944768868774175,-0.7571995927721261,0.06442023052759469
1704370129276161300,9.408161376953124,0.611850626116991,-0.7334107209056615,0.07825732496120036
1704370129286137000,9.41813720703125,0.44024668974280357,-0.6732347768843173,0.0413714364387095
1704370129296113000,9.42811279296875,0.19817688600122926,-0.5827104563504457,-0.024594087302125988
1704370129306089200,9.438089111328125,-0.07543079629838466,-0.5298813679605722,-0.03696633334755897
1704370129316065000,9.44806494140625,-0.39819618499875065,-0.5603153769299387,0.04417027337700128
1704370129326041300,9.458041259765626,-0.7317927643150091,-0.7154922023773193,0.20683197468705475
1704370129336017200,9.46801708984375,-1.011316392660141,-0.9976809582784771,0.4336496295653283
1704370129345993000,9.477992919921874,-1.1283721617668867,-1.3519161287367343,0.5922226002570241
1704370129355969300,9.48796923828125,-1.0404881266087294,-1.5573293957322836,0.47102198643051085
1704370129365945000,9.497945068359375,-0.9983423447966575,-1.4593331318825482,0.0035766894429922103
1704370129375921000,9.5079208984375,-1.2260808408468962,-1.218852058637142,-0.5243137969613075
1704370129385897200,9.517897216796875,-1.707397792124748,-0.963497533647716,-0.9520862781215459
1704370129395873000,9.527873046875,-2.6173838080763816,-0.5341100915715098,-1.3190128070443867
1704370129405849300,9.537849365234376,-3.725886317247152,0.046778410048782824,-1.6141230038389562
1704370129415825200,9.5478251953125,-4.71771942628026,0.7155357492581009,-1.8238740077778697
1704370129425801000,9.557801025390624,-5.261546902006864,1.3177911562949418,-1.9141043138012288
1704370129435777300,9.56777734375,-5.258403927806019,1.7003034499496221,-1.7400249272242188
1704370129445753000,9.577753173828125,-4.532293885302543,1.9191013914361594,-1.2637968235179782
1704370129455729000,9.58772900390625,-3.224250216040015,1.776463145044446,-0.667063248642534
1704370129465705200,9.597705322265625,-1.7184563617557287,1.3953013892158865,-0.28451668739207087
1704370129475681000,9.607680908203125,-0.3790022397071123,1.00589086048007,-0.17021387025527654
1704370129485657000,9.617656982421876,0.7004360875427722,0.6316369843438268,-0.192459750463441
1704370129495633200,9.627633056640626,1.408066470503807,0.3573237841233611,-0.4313398913182318
1704370129505609000,9.63760888671875,1.6332763248592614,0.20977292350977658,-0.7476360109392554
1704370129515585300,9.647585205078125,1.4020131618142126,0.2609507375612855,-1.0451203895192593
1704370129525561000,9.65756103515625,0.8930454025447369,0.476186310391128,-1.1488720020253211
1704370129535537000,9.667536865234375,0.3672825758188963,0.6419397671714425,-0.9458471645362675
1704370129545513200,9.67751318359375,0.07100128941833972,0.7040113156810403,-0.5547562084328382
1704370129555489000,9.687489013671875,0.028776597151160238,0.7420525847837328,-0.10238178545758128
1704370129565464600,9.697464599609376,0.1793447597593069,0.8224842581093311,0.2793896267019212
1704370129575440600,9.707440673828126,0.41413492788672446,0.865103502652049,0.5432957069374621
1704370129585416400,9.71741650390625,0.598998743328452,0.8483160339802504,0.7217648529060184
1704370129595392500,9.727392578125,0.7281424251139164,0.7799933161213993,0.8440852645426988
1704370129605368600,9.73736865234375,0.8713578868716955,0.7322320325151085,0.9034808718413114
1704370129615344600,9.7473447265625,1.005659389811754,0.6706999977096915,0.8813020655199885
1704370129625320400,9.757320556640625,1.1762439200103283,0.5796361634716392,0.8581874396532774
1704370129635296500,9.767296630859375,1.385205234876275,0.4771007948875427,0.8453302231024951
1704370129645272600,9.7772724609375,1.5928022756516933,0.33712533796429633,0.815659891982004
1704370129655248600,9.78724853515625,1.7715134136825799,0.17967267653942107,0.7962508426349609
1704370129665224400,9.797224365234374,1.872762541848421,0.08495937988311052,0.7158890927404165
1704370129675200500,9.807200439453124,1.9227491002887487,-0.0025160744741559026,0.6204357913717627
1704370129685176600,9.817176513671875,1.9053046290129423,-0.09588175591379404,0.5686032762711868
1704370129695152600,9.827152587890625,1.7899217615544796,-0.11730156056135892,0.5339866478549317
1704370129705129700,9.837129638671875,1.6292676737397909,-0.0356143342167139,0.5359027836745605
1704370129715105500,9.84710546875,1.4303577972888946,0.07605565019845963,0.5783217929374427
1704370129725081300,9.857081298828126,1.2019967854261397,0.20691256564259528,0.6673790365934371
1704370129735057700,9.8670576171875,0.9669698859333992,0.3267404298111796,0.7183275719337165
1704370129745033500,9.877033447265624,0.7445102070689201,0.385703783172369,0.7373360776558519
1704370129755009500,9.887009521484375,0.5080465527713298,0.3851309517204761,0.7598905854217708
1704370129764985600,9.896985595703125,0.3169026341468096,0.32549306009858847,0.7365620245434343
1704370129774961400,9.90696142578125,0.23628771320879458,0.24283932680934667,0.6931503144487738
1704370129784937700,9.916937744140625,0.2281131745815277,0.11390402707755565,0.6425979388192296
1704370129794913500,9.92691357421875,0.299171162623167,-0.02759878554344177,0.582160567382723
1704370129804889300,9.936889404296876,0.39995150423347947,-0.1767921526670456,0.5455911243982613
1704370129814865700,9.94686572265625,0.4775520457863807,-0.3295890972405672,0.4909144353803247
1704370129824841500,9.956841552734375,0.48541152711510654,-0.4647326039627194,0.38420678608026354
1704370129834817500,9.966817626953125,0.4583458255350589,-0.6257260067343712,0.3191955308569595
1704370129844793600,9.976793701171875,0.39148178205192086,-0.7766679710909724,0.3007589067386463
1704370129854769400,9.986769287109375,0.3159346658974886,-0.9213532131403684,0.30225334654748437
1704370129864745700,9.996745849609376,0.24435996050536632,-1.0716308683693407,0.32572840322442354
1704370129874721500,10.006721435546876,0.1721639083445072,-1.2189061269119381,0.3261954727469012
1704370129884697300,10.016697265625,0.10231821870207786,-1.296361999297142,0.24757420984413472
1704370129894673700,10.026673583984374,-0.015316227075457572,-1.2801947083503007,0.1040980513235554
1704370129904649500,10.0366494140625,-0.16950842539966104,-1.179959141141176,-0.13120967440456152
1704370129914625500,10.04662548828125,-0.3878863879084587,-1.0103402411043643,-0.4570581603446975
1704370129924601600,10.0566015625,-0.6622925271093845,-0.801042533890903,-0.8462114629164338
1704370129934577400,10.066577392578125,-1.0090233132869004,-0.555033344873786,-1.1360902618635444
1704370129944553700,10.0765537109375,-1.4433388594150542,-0.3204004131346941,-1.1331581539344042
1704370129954529500,10.086529541015626,-1.9293273096352814,-0.29986060619205235,-0.7566320220172404
1704370129964505300,10.09650537109375,-2.259368826818466,-0.6208443721726536,-0.019109335748106242
1704370129974481700,10.106481689453124,-2.059617238846421,-1.0237336834236979,0.7171728489406406
1704370129984457500,10.11645751953125,-1.3460855228871107,-1.310396077607572,1.0492037133101373
1704370129994433500,10.12643359375,-0.759609576523304,-1.5530299449726939,1.0192552228353917
1704370130004409600,10.13640966796875,-0.6243523802936076,-1.7952438333600758,0.8207500547278672
1704370130014385400,10.146385498046875,-0.8341250115424395,-1.872844374912977,0.49999819780699906
1704370130024361700,10.15636181640625,-1.275311612483859,-1.6266630441993475,-0.020362477614358065
1704370130034337500,10.166337646484376,-1.938138392600417,-1.2155536016136408,-0.3492255986679345
1704370130044313300,10.176313232421874,-2.579834706404805,-0.7042927629709244,-0.47734702473357316
1704370130054289700,10.18628955078125,-3.0781004543960093,-0.22766835342347622,-0.46911629893966017
1704370130064265500,10.196265380859375,-3.363048445877433,0.21225597249716519,-0.2559317038228735
1704370130074241500,10.206241455078125,-3.348422539153695,0.5637807149529457,0.10616711268257349
1704370130084217600,10.216217529296875,-3.0172447114169594,0.834267634883523,0.5054546731146052
1704370130094193400,10.226193359375,-2.4313456881582733,0.9120639912694692,0.8769627942066639
1704370130104169700,10.236169677734376,-1.7174959922909736,0.8195315457835793,1.048940897655487
1704370130114145500,10.2461455078125,-1.0701175411969424,0.6750622845724225,0.9627439388014376
1704370130124121300,10.256121337890624,-0.6459165618479251,0.586764407916367,0.6630404228672385
1704370130134097700,10.26609765625,-0.5300795208811759,0.5917319671958684,0.23795612134505062
1704370130144073500,10.276073486328125,-0.6750660839647055,0.7155030160322785,-0.19303729462306946
1704370130154049500,10.286049560546875,-0.9579816928356886,0.9780933374941349,-0.4695150159336626
1704370130164025600,10.296025634765625,-1.2108669051021337,1.2927505308017133,-0.4865014412436634
1704370130174001400,10.30600146484375,-1.3241267890572548,1.5278227307409047,-0.3027927871864289
1704370130183977700,10.315977783203126,-1.2643728698402643,1.6593734736680983,-0.049051286884211
1704370130193953500,10.32595361328125,-1.0459054754823445,1.728041643963754,0.13852054540719835
1704370130203929300,10.335929443359374,-0.6927133843362331,1.7517691410318017,0.23703641268424688
1704370130213905700,10.34590576171875,-0.22309563868045806,1.6904755911573766,0.3432999714786187
1704370130223881500,10.355881591796875,0.29650457376241685,1.6079621431216597,0.3498749659547582
1704370130233857500,10.365857421875,0.8125374491125344,1.4929673981979488,0.2873824886193499
1704370130243833600,10.37583349609375,1.2524544685095549,1.3293974229365586,0.21790621681120245
1704370130253809400,10.385809326171875,1.6618331417798995,1.1614692524656653,0.12781499046497047
1704370130263785700,10.39578564453125,2.0165590183645485,0.9966595062762498,0.059810069851018485
1704370130273761500,10.405761474609376,2.3075854529768227,0.8716253056362271,0.05613861479666084
1704370130283737300,10.4157373046875,2.514871528106928,0.775439598339796,0.08238709997599944
1704370130293713700,10.425713623046875,2.586153388032317,0.687652009293437,0.17568568926248698
1704370130303689500,10.435689453125,2.5698206773906946,0.6609288375407457,0.30323021048931403
1704370130313665500,10.44566552734375,2.4846874022454024,0.6716741034388541,0.4072689511073753
1704370130323641600,10.4556416015625,2.349315639725327,0.689192516733706,0.49781153795029964
1704370130333617400,10.465617431640625,2.184513200059533,0.6691767336651683,0.5378341535959392
1704370130343593500,10.475593505859376,1.9664076247513294,0.587697012591362,0.5202179790150374
1704370130353569500,10.485569580078124,1.6916770759016275,0.4974412798658013,0.41713966266065833
1704370130363545300,10.49554541015625,1.3972183287531137,0.4537210883438587,0.2971081291461363
1704370130373521700,10.505521728515625,1.1137491776525974,0.42875118999928236,0.20514983028639106
1704370130383497500,10.51549755859375,0.8978314677774906,0.42217911813259124,0.18820311593227088
1704370130393473500,10.5254736328125,0.7503408129185438,0.3904325652599335,0.24620182551238684
1704370130403449600,10.53544970703125,0.6691600747913122,0.27195377761274575,0.3526698939029127
1704370130413425400,10.54542529296875,0.6281593713611364,0.12999094626456498,0.42765944923982024
1704370130423401500,10.5554013671875,0.5113140301346779,-0.004015665382146835,0.4695906019205227
1704370130433377500,10.56537744140625,0.39446225916743277,-0.09525427166521548,0.45978360325321554
1704370130443353300,10.575353271484374,0.32135610642433166,-0.13724632422029973,0.43073271920531986
1704370130453329700,10.58532958984375,0.3011123598188162,-0.1946530957892537,0.4059058095280081
1704370130463305500,10.595305419921875,0.30936054820418357,-0.2760372475340962,0.44630065601952373
1704370130473281500,10.605281494140625,0.2533715344786644,-0.3681090897709131,0.4591138872981071
1704370130483257600,10.615257568359375,0.10836626669466495,-0.43294834942817684,0.4341233114916831
1704370130493233400,10.6252333984375,-0.07340601247251033,-0.46090047845393417,0.3316406229428947
1704370130503209500,10.63520947265625,-0.21748890471458435,-0.42905046520680185,0.1636206094700843
1704370130513185500,10.645185546875,-0.27398119178712366,-0.3734042735695839,0.0066962097030133
1704370130523161300,10.655161376953124,-0.24570085372030734,-0.3083919954329729,-0.10708901330046355
1704370130533137700,10.6651376953125,-0.22196166621446609,-0.27263036170005794,-0.11987805998586118
1704370130543113500,10.675113525390625,-0.2858803038954735,-0.2921224131554365,-0.022568097899854183
1704370130553089500,10.685089599609375,-0.4119856408983469,-0.40672786650061604,0.20379194940403103
1704370130563066000,10.695066162109375,-0.5571627581179142,-0.6361690748155117,0.52748438982144
1704370130573042200,10.705042236328126,-0.5693851108312606,-0.9821735925450921,0.8419309360530227
1704370130583018000,10.71501806640625,-0.4250865300118923,-1.305231826712191,1.0424854379057884
1704370130592994300,10.724994384765624,-0.2898492075264454,-1.449178817614913,0.9452338549435139
1704370130602970000,10.73497021484375,-0.3123147218346596,-1.383968971079588,0.5204531029451638
1704370130612946000,10.74494580078125,-0.6798398742377758,-1.213924831368029,-0.05218932918161154
1704370130622922200,10.754922119140625,-1.3445564136236905,-0.90483550132066,-0.5925090890482068
1704370130632898000,10.76489794921875,-2.206387762737274,-0.4178872661575675,-0.9114183868423104
1704370130642874000,10.7748740234375,-3.2410031979203224,0.0285299289137125,-1.0701114037171005
1704370130652850200,10.78485009765625,-4.153009906044602,0.49941842515766616,-1.161893030835688
1704370130662826000,10.794825927734376,-4.698483395412564,1.0018108976900577,-1.1167693291913718
1704370130672802300,10.80480224609375,-4.837050154581665,1.3896239281013607,-0.8890992222022265
1704370130682778000,10.814778076171875,-4.36827295140326,1.5986539242893456,-0.4496677212998271
1704370130692754000,10.82475390625,-3.2716713079065083,1.6306854315832255,0.10604249992221593
1704370130702730200,10.834730224609375,-1.971408209517598,1.413933608971536,0.385418901816383
1704370130712706000,10.8447060546875,-0.7739537436962127,1.070166641035676,0.4781750730555504
1704370130722682000,10.85468212890625,0.17919453763365745,0.7794815672069787,0.4242242871593684
1704370130732658200,10.864658203125,0.8914017269909381,0.5386036035984755,0.1716184032909572
1704370130742634000,10.874634033203124,1.2111673493534325,0.34942952374219893,-0.2705336816817522
1704370130752610300,10.8846103515625,1.1690788506865502,0.24130671041458843,-0.8336511834856122
1704370130762586000,10.894586181640625,0.9137953451067209,0.2898959692776203,-1.3099264142692089
1704370130772562000,10.90456201171875,0.5955050559937953,0.457970854742825,-1.5226272079244254
1704370130782538200,10.914538330078125,0.32168753033578396,0.6298828341528773,-1.4294342527031898
1704370130792514000,10.92451416015625,0.18767711929678915,0.745603263002634,-1.0849069679193197
1704370130802490000,10.934489990234376,0.22295652247071265,0.8171893665716051,-0.5520367934063076
1704370130812466200,10.944466064453126,0.38128362864255905,0.8406190497368574,-0.03600041092485189
1704370130822442000,10.95444189453125,0.5957663372784853,0.8591314425051212,0.32237799681797624
1704370130832418300,10.964418212890624,0.8071253609359264,0.8515440561160444,0.5216399746421724
1704370130842394000,10.97439404296875,0.9971101726531982,0.7903162649542093,0.5810748910378665
1704370130852370000,10.984369873046875,1.1563584853231905,0.6831964911893009,0.5243017411973327
1704370130862346200,10.99434619140625,1.2746879276275633,0.5543947547093033,0.3576047930218279
1704370130872322000,11.004322021484375,1.3246142803132532,0.4250184332117438,0.15610329264253378
1704370130882298000,11.014298095703126,1.2994587962687014,0.2841685315415263,-0.015466522266343236
1704370130892274200,11.024274169921876,1.1966525017887353,0.1512833251401782,-0.15646511169224978
1704370130902250000,11.03425,1.0935849260240793,0.045972354362905025,-0.24678353439047931
1704370130912226300,11.044226318359375,1.0103080924004315,-0.030067806005477902,-0.30006109720021484
1704370130922202000,11.0542021484375,0.9278203633278608,-0.10838234104663133,-0.2838723981391638
1704370130932179200,11.06417919921875,0.8437316287994384,-0.14749503877311945,-0.19782836482450364
1704370130942155000,11.074155029296875,0.7810796500533819,-0.12696546096354722,-0.10532821417301892
1704370130952131000,11.084131103515626,0.7554144629210233,-0.06926175227463245,-0.030183249078691004
1704370130962107100,11.094107177734376,0.6981991222709417,-0.048077509948611256,0.05003127436488867
1704370130972083200,11.104083251953124,0.6012865620046853,-0.06689940705746412,0.08695493761450052
1704370130982059000,11.11405908203125,0.49329906549453734,-0.09590835165977478,0.0932878669630736
1704370130992035000,11.12403515625,0.4027694842636585,-0.14357611176371574,0.06980608828440309
1704370131002011100,11.13401123046875,0.3354039209991693,-0.20870617106109857,0.06955218658857047
1704370131011987200,11.1439873046875,0.3032067017495632,-0.28236761959940193,0.025791005469113587
1704370131021963000,11.153962890625,0.30423370670974254,-0.38550709155648943,-0.04071633353084326
1704370131031939000,11.16393896484375,0.312190803194046,-0.523850271102786,-0.1339058546859771
1704370131041915100,11.1739150390625,0.33022973323166366,-0.6580646802812814,-0.23114552801474927
1704370131051891200,11.18389111328125,0.42645314218997954,-0.7816425446331501,-0.281986072935909
1704370131061867000,11.193866943359374,0.5556447547703981,-0.8825643405407667,-0.268508934388496
1704370131071843000,11.203843017578125,0.6584101327180862,-0.9908692324370145,-0.2046511600492522
1704370131081819100,11.213819091796875,0.7333803257673979,-1.0863792324289678,-0.1141562117403373
1704370131091795200,11.223795166015625,0.7495750892430544,-1.1387366116538644,-0.05758939812686294
1704370131101771000,11.23377099609375,0.6581599573493003,-1.196542903934419,0.03383599943257868
1704370131111747000,11.2437470703125,0.48091655378341674,-1.2235659354165196,0.13187175504248588
1704370131121723100,11.25372314453125,0.3282967193424701,-1.215944646757841,0.19461294644195584
1704370131131699200,11.26369921875,0.21703590025007724,-1.2129647541642188,0.2364255873095244
1704370131141675000,11.273675048828125,0.0992050551176071,-1.2093439333185554,0.23290877482760697
1704370131151651000,11.283651123046875,-0.018137714236974717,-1.1756880396932363,0.17893800558932124
1704370131161627100,11.293627197265625,-0.059097501134872436,-1.069254202365875,0.05881346002910286
1704370131171603200,11.303603271484375,-0.101627898350358,-0.9259335266679525,-0.026951829409413038
1704370131181579000,11.3135791015625,-0.2816384285420179,-0.7615139488399029,-0.06946816156692802
1704370131191555000,11.32355517578125,-0.5597510210454464,-0.6242965584531426,-0.03016951281428337
1704370131201531100,11.33353125,-0.849959709534049,-0.6716223732516169,0.16426172038521616
1704370131211507200,11.343507080078124,-1.010327966144681,-0.7716749851092696,0.30273583283480254
1704370131221483300,11.353483154296875,-1.152672490286827,-0.873490514986217,0.28594566074926403
1704370131231459000,11.363458984375,-1.4224696743875742,-0.936371041791141,0.14568565126359462
1704370131241435100,11.37343505859375,-1.7541326552927492,-0.8631666893705725,-0.07102510868534445
1704370131251411200,11.3834111328125,-2.1758903331428763,-0.6150982297360896,-0.38316180707197633
1704370131261387000,11.393386962890625,-2.7727859667122363,-0.3263631209313869,-0.606415339727886
1704370131271363000,11.403363037109376,-3.344285293218493,-0.020882336769998074,-0.6353884458318352
1704370131281339100,11.413339111328124,-3.5919571547508236,0.3451122450649738,-0.46856209912300106
1704370131291315200,11.423315185546874,-3.4459085153937337,0.6754539142385125,-0.03351736193746328
1704370131301291300,11.433291259765625,-2.8603865087538956,0.8265320721954107,0.5901332632949575
1704370131311267000,11.44326708984375,-1.990629042816162,0.8415954935535788,1.0675364386625588
1704370131321243100,11.4532431640625,-1.1534382139623165,0.7382932322502136,1.3014330189511178
1704370131331219200,11.46321923828125,-0.47354807084202766,0.6305439284101129,1.3759648205831647
1704370131341195000,11.473195068359376,-0.12079144850373268,0.5394514525994658,1.2504061576776206
1704370131351171000,11.483171142578126,-0.03905132292807102,0.43606180527359245,1.0174443740211427
1704370131361147100,11.493147216796874,-0.14043021495342253,0.3744984985470772,0.755567534590885
1704370131371123200,11.503123291015624,-0.3270826673775911,0.384711557264626,0.46527167927548285
1704370131381099300,11.513099365234375,-0.46003275570869445,0.43793987410515545,0.24916568028666078
1704370131391075000,11.523074951171875,-0.4626122508078813,0.5069859378024936,0.13457483998872338
1704370131401051100,11.533051025390625,-0.3984866923779249,0.5462319065198302,0.08219912138953804
1704370131411027200,11.543027099609375,-0.298210793158412,0.5728472339838743,0.09223890589941293
1704370131421003000,11.5530029296875,-0.1840899084597826,0.5839452588424087,0.13320468414667994
1704370131430979000,11.56297900390625,-0.07902092974483967,0.5983768120378256,0.15546788081582635
1704370131440955100,11.572955078125,0.012853636354207991,0.6435135923594236,0.18699677234981207
1704370131450931200,11.58293115234375,0.08545300861895083,0.7479092018574476,0.22764296325389294
1704370131460907300,11.5929072265625,0.07271686116456985,0.8902373593866825,0.23729345618523656
1704370131470883000,11.602883056640625,0.023330022183060645,1.025204925020039,0.22228874274436383
1704370131480859100,11.612859130859375,-0.005839373677968979,1.1112082609981297,0.1972516243824735
1704370131490835200,11.622835205078125,-0.012234043151140211,1.1388225363716482,0.15619400313328952
1704370131500811000,11.63281103515625,0.019418986219167707,1.1469596655979752,0.134417019078508
1704370131510787000,11.642787109375,0.09261515533328056,1.1062965235590934,0.13577953960336744
1704370131520763100,11.65276318359375,0.27889702087938784,1.0563371453866361,0.0942532413965091
1704370131530739000,11.662739013671874,0.5053051451086997,0.9626385787308216,0.06870736979488283
1704370131540715300,11.67271533203125,0.7718149781018495,0.8382812544390559,0.012522614301554857
1704370131550691000,11.682691162109375,1.0682745436787604,0.7124798688188195,-0.04933375708740204
1704370131560667100,11.692667236328125,1.3347937290221452,0.5889119413390755,-0.06795202138293534
1704370131570643500,11.7026435546875,1.514565774282813,0.4575920845583081,-0.08176580800618975
1704370131580619500,11.71261962890625,1.5272043065816163,0.3423132619962096,-0.09535729364827275
1704370131590595600,11.722595703125,1.46844991979599,0.27652415426820515,-0.11852649924643337
1704370131600571600,11.732571533203124,1.3660183038473128,0.24976094276607036,-0.17793091090600938
1704370131610547500,11.74254736328125,1.2768588419258593,0.258407775080204,-0.2205899760024622
1704370131620523500,11.7525234375,1.191725566780567,0.2692293210849166,-0.2317209167499095
1704370131630499600,11.76249951171875,1.0446434927225112,0.2559916538491845,-0.20429909520857034
1704370131640475400,11.772475341796875,0.8695797712832689,0.20562252583205698,-0.14263017268311232
1704370131650451500,11.782451416015626,0.7283084293305874,0.16008008731901643,-0.09244831086639314
1704370131660427500,11.792427490234376,0.6868681654393672,0.10496668738424778,-0.07373462337236851
1704370131670403600,11.802403564453124,0.69488254506886,0.030021628776192664,-0.03780994456484914
1704370131680379600,11.812379638671874,0.7180816343486308,-0.07681728222072123,-0.001745565025694668
1704370131690355500,11.82235546875,0.7139648466795683,-0.171091895198822,0.02971552196908742
1704370131700331500,11.83233154296875,0.7207043840676546,-0.21954817533195017,0.028525983390957115
1704370131710307600,11.8423076171875,0.6843529677480459,-0.26974340808689595,0.03615004852861166
1704370131720283400,11.852283447265625,0.6078945819675922,-0.3294847600832581,0.06677168902456761
1704370131730259500,11.862259521484376,0.4901952542603016,-0.36232787602096794,0.11534494660086929
1704370131740235500,11.872235595703126,0.3467676110565662,-0.34451574047654865,0.12310374403409659
1704370131750211600,11.882211669921874,0.20233926637768745,-0.24656390029042957,0.04233779725283384
1704370131760187600,11.892187744140625,0.1109656355381012,-0.1300856388106942,-0.05105038827955723
1704370131770163500,11.90216357421875,0.02691957110762596,-0.07696838112920522,-0.0699931352891028
1704370131780139500,11.912139404296875,-0.04622516008019447,-0.060361821982264516,0.019469474297389388
1704370131790115600,11.922115478515625,-0.10582242743074893,-0.12498773114979267,0.20585041630379855
1704370131800091400,11.93209130859375,-0.2442120764672756,-0.3375935399979353,0.5014307148281485
1704370131810067500,11.9420673828125,-0.41577743439674375,-0.6405819228217006,0.7867833415877074
1704370131820043500,11.95204345703125,-0.5316384407609701,-0.990064638055861,0.9353111574746668
1704370131830019600,11.96201953125,-0.526767035332322,-1.2691478291571139,0.9722769793655722
1704370131839995600,11.97199560546875,-0.43005028989911076,-1.3106024138346313,0.8512753952424973
1704370131849971500,11.981971435546875,-0.3831237035512924,-1.171697216491401,0.43080987609475846
1704370131859947500,11.991947509765625,-0.5208855760782957,-0.9928586526885628,-0.25045213990062476
1704370131869923600,12.001923583984375,-0.9665461075633763,-0.6572936959087848,-0.8837786847665905
1704370131879899400,12.0118994140625,-1.69329503249228,-0.15542933890372515,-1.2552046440005302
1704370131889875500,12.02187548828125,-2.7683436003506183,0.33817923093140123,-1.3759165975272654
1704370131899851500,12.0318515625,-3.9496430501848456,0.8050210821330547,-1.3533720266334712
1704370131909827600,12.04182763671875,-4.738220947039127,1.2294640535444021,-1.264365563316643
1704370131919803600,12.0518037109375,-4.91533517126739,1.4992197365909814,-0.9224528449453413
1704370131929779500,12.061779541015625,-4.308026864755154,1.666246866568923,-0.42893772554732856
1704370131939755500,12.071755615234375,-3.119882663592696,1.593295027604699,-0.02359481059908867
1704370131949731600,12.081731689453125,-1.8181582604795694,1.1913818679094315,0.13477160466983915
1704370131959707400,12.091707275390625,-0.6998281847774982,0.7769789367362856,0.12096008306890725
1704370131969683700,12.10168359375,0.08854512941539287,0.37423458691388367,-0.07595138610638677
1704370131979659500,12.111659423828126,0.5392430705457926,0.07142156065702437,-0.4697887913737446
1704370131989635600,12.121635498046874,0.7457271816432476,-0.043133623805642125,-1.0921935447309166
1704370131999611600,12.131611572265625,0.755062580743432,0.07416735223382712,-1.676336591167748
1704370132009587500,12.14158740234375,0.6248427941590547,0.2873927542850375,-1.9862284697696566
1704370132019563500,12.1515634765625,0.4300222328484058,0.4781067570596933,-1.891074735869467
1704370132029539600,12.16153955078125,0.2475409286290407,0.6172787886455655,-1.4315367779403925
1704370132039515400,12.171515380859375,0.18581892420947552,0.7638800934493541,-0.832541395612806
1704370132049491700,12.18149169921875,0.2746937239706516,0.9327382382467388,-0.27168380156494676
1704370132059467500,12.191467529296874,0.44497079565525055,1.030149395684898,0.14425817574374378
1704370132069443600,12.201443603515624,0.6729658968150616,1.0293012544229625,0.39748328748904166
1704370132079419600,12.211419677734375,0.9209949012219906,0.9325617126360535,0.541331640322879
1704370132089395500,12.2213955078125,1.200645955339074,0.7824617520615458,0.6498752363458276
1704370132099371500,12.23137158203125,1.5350491748630999,0.6639262657910585,0.6870457870285958
1704370132109347600,12.24134765625,1.8293775736302136,0.5377227291107177,0.6644208443749695
1704370132119323400,12.251323486328126,2.052478473007679,0.3721604109883308,0.680182038738951
1704370132129299700,12.2612998046875,2.1604951956123113,0.24203034851402042,0.6422368504218757
1704370132139275500,12.271275634765624,2.1505343580901624,0.1518368673697114,0.5630356322066858
1704370132149251600,12.28125146484375,2.0523954708993433,0.07245265727043151,0.455730272741802
1704370132159227600,12.2912275390625,1.8369857105463743,0.010700549973547458,0.2941079244168475
1704370132169203500,12.301203369140625,1.5762304955571889,-0.040807811206579205,0.16952807994820177
1704370132179179500,12.311179443359375,1.304073596587777,-0.05308101732432842,0.09445585129652172
1704370132189155600,12.321155517578125,1.0525865606814622,-0.024240707287192343,0.03238013806845993
1704370132199132400,12.33113232421875,0.8460849139273167,0.02828501424193382,0.02049779443182051
1704370132209107700,12.341107666015626,0.6684393593013286,0.05340951862633228,0.03245006149951368
1704370132219083500,12.35108349609375,0.48828620576858517,0.047587388344109055,0.012149835466407239
1704370132229059600,12.3610595703125,0.32881051408350465,0.047339843323826784,-0.03635108752604574
1704370132239036700,12.37103662109375,0.15248480988442897,0.03448211531639099,-0.0863033783705905
1704370132249012500,12.381012451171875,0.015077742144465446,-0.0065425535112619395,-0.05982176028881222
1704370132258988500,12.390988525390625,-0.03728372873365879,-0.06242927590608596,0.010758746434189378
1704370132268964600,12.400964599609376,-0.01881108345389366,-0.12610299891531468,0.09069715635012834
1704370132278940400,12.4109404296875,0.0478097989231348,-0.21407968079298734,0.1639724185824394
1704370132288916500,12.42091650390625,0.1477209564834833,-0.3117971277013421,0.19013693353906272
