time,seconds_elapsed,z,y,x
1704279015324424200,0.010424072265625,-0.914581298828125,-0.3795928955078125,0.0737457275390625
1704279015334398200,0.020398193359375,-0.913482666015625,-0.3777923583984375,0.0742340087890625
1704279015344373200,0.030373291015625,-0.914581298828125,-0.3770904541015625,0.0703887939453125
1704279015354347300,0.04034716796875,-0.9171142578125,-0.3806915283203125,0.070098876953125
1704279015364322300,0.050322265625,-0.9284515380859375,-0.3877105712890625,0.0718536376953125
1704279015374296000,0.060296142578125,-0.9556884765625,-0.390838623046875,0.072540283203125
1704279015384271400,0.070271240234375,-0.9735260009765625,-0.390411376953125,0.071014404296875
1704279015394245400,0.080245361328125,-0.9603271484375,-0.398345947265625,0.0650634765625
1704279015404219100,0.09021923828125,-0.918914794921875,-0.40411376953125,0.0614013671875
1704279015414194400,0.1001943359375,-0.8787689208984375,-0.3988800048828125,0.06756591796875
1704279015424168400,0.11016845703125,-0.8484954833984375,-0.3973388671875,0.06024169921875
1704279015434143200,0.120143310546875,-0.8583984375,-0.391571044921875,0.0204315185546875
1704279015444117200,0.1301171875,-0.9133758544921875,-0.3649749755859375,-0.011810302734375
1704279015454092300,0.14009228515625,-0.906219482421875,-0.37322998046875,0.02142333984375
1704279015464066300,0.15006640625,-0.9133148193359375,-0.3978729248046875,0.038299560546875
1704279015474041300,0.160041259765625,-0.9275054931640625,-0.4046173095703125,0.060943603515625
1704279015484015000,0.17001513671875,-0.9530792236328125,-0.3955078125,0.0775604248046875
1704279015493990100,0.179990234375,-0.98980712890625,-0.38970947265625,0.059722900390625
1704279015503964200,0.189964111328125,-1.0172882080078125,-0.3665924072265625,-0.000030517578125
1704279015513939500,0.199939453125,-1.01043701171875,-0.3334503173828125,-0.0153961181640625
1704279015523913500,0.20991357421875,-1.01300048828125,-0.32470703125,0.0183258056640625
1704279015533888300,0.21988818359375,-1.0208740234375,-0.3468017578125,-0.001617431640625
1704279015543862300,0.2298623046875,-1.0126495361328125,-0.3510894775390625,-0.00225830078125
1704279015553837300,0.23983740234375,-0.995635986328125,-0.3414306640625,0.001953125
1704279015563811300,0.249811279296875,-0.971160888671875,-0.3357086181640625,-0.0054931640625
1704279015573785300,0.259785400390625,-0.943756103515625,-0.3420257568359375,-0.0199737548828125
1704279015583760400,0.269760498046875,-0.90704345703125,-0.3511505126953125,-0.0196380615234375
1704279015593734100,0.279734130859375,-0.8609161376953125,-0.3570404052734375,-0.00189208984375
1704279015603709200,0.289709228515625,-0.815185546875,-0.3632965087890625,0.02801513671875
1704279015613683200,0.29968310546875,-0.787811279296875,-0.3715362548828125,0.0576019287109375
1704279015623658200,0.309658203125,-0.7751312255859375,-0.38427734375,0.077056884765625
1704279015633632300,0.31963232421875,-0.770294189453125,-0.3934173583984375,0.09423828125
1704279015643607300,0.329607177734375,-0.7711181640625,-0.39385986328125,0.1068878173828125
1704279015653581300,0.339581298828125,-0.78363037109375,-0.391693115234375,0.1103668212890625
1704279015663556400,0.349556396484375,-0.800750732421875,-0.3882904052734375,0.1351776123046875
1704279015673530400,0.3595302734375,-0.825164794921875,-0.377227783203125,0.240264892578125
1704279015683505400,0.36950537109375,-0.86883544921875,-0.3820037841796875,0.2307281494140625
1704279015693479400,0.3794794921875,-0.942169189453125,-0.38031005859375,0.2014312744140625
1704279015703454200,0.3894541015625,-1.1165924072265625,-0.3564605712890625,0.1491546630859375
1704279015713428200,0.39942822265625,-1.42437744140625,-0.3380889892578125,0.173858642578125
1704279015723403300,0.4094033203125,-1.1174774169921875,-0.3170318603515625,0.1193695068359375
1704279015733377300,0.419377197265625,-1.0679473876953125,-0.304962158203125,0.0831146240234375
1704279015743351300,0.429351318359375,-0.99810791015625,-0.3301849365234375,0.021392822265625
1704279015753326000,0.439326171875,-0.8854522705078125,-0.3364410400390625,-0.001739501953125
1704279015763300000,0.449300048828125,-0.8285675048828125,-0.3340911865234375,-0.001495361328125
1704279015773275400,0.459275390625,-0.8021697998046875,-0.345672607421875,-0.007110595703125
1704279015783249400,0.46924951171875,-0.818878173828125,-0.360107421875,-0.00506591796875
1704279015793224400,0.479224365234375,-0.8264617919921875,-0.352020263671875,0.0140838623046875
1704279015803198500,0.489198486328125,-0.82965087890625,-0.3426971435546875,0.0360565185546875
1704279015813173200,0.49917333984375,-0.8784332275390625,-0.3397369384765625,0.050567626953125
1704279015823147300,0.509147216796875,-0.9400787353515625,-0.3275146484375,0.0323944091796875
1704279015833122300,0.519122314453125,-0.9979095458984375,-0.303802490234375,0.000640869140625
1704279015843096300,0.529096435546875,-1.0349578857421875,-0.2762603759765625,-0.0193634033203125
1704279015853071000,0.539071044921875,-1.058441162109375,-0.256622314453125,-0.0256500244140625
1704279015863045000,0.549045166015625,-1.1045989990234375,-0.2504119873046875,-0.0214691162109375
1704279015873020200,0.559020263671875,-1.1014862060546875,-0.2435760498046875,0.0022430419921875
1704279015882994200,0.568994140625,-1.0472869873046875,-0.25250244140625,0.01544189453125
1704279015892969500,0.578969482421875,-0.999176025390625,-0.2763671875,0.0157470703125
1704279015902943500,0.588943603515625,-0.972015380859375,-0.28924560546875,0.00616455078125
1704279015912917200,0.598917236328125,-0.9483795166015625,-0.281097412109375,0.0051116943359375
1704279015922892300,0.608892333984375,-0.9165191650390625,-0.2617645263671875,0.00299072265625
1704279015932866300,0.6188662109375,-0.9211273193359375,-0.2610015869140625,-0.0374908447265625
1704279015942841300,0.62884130859375,-0.9407501220703125,-0.2400360107421875,-0.078216552734375
1704279015952815400,0.6388154296875,-0.9588165283203125,-0.2181243896484375,-0.0773162841796875
1704279015962790100,0.6487900390625,-0.982940673828125,-0.2341766357421875,-0.042572021484375
1704279015972764200,0.65876416015625,-1.0038299560546875,-0.259521484375,-0.0010223388671875
1704279015982739200,0.6687392578125,-1.01153564453125,-0.2737884521484375,0.022979736328125
1704279015992713200,0.678713134765625,-1.0089111328125,-0.27569580078125,0.021453857421875
1704279016002688300,0.688688232421875,-0.9933319091796875,-0.2814788818359375,0.0386505126953125
1704279016012662300,0.698662353515625,-0.9690399169921875,-0.26287841796875,0.02288818359375
1704279016022637300,0.70863720703125,-0.9678192138671875,-0.25531005859375,0.02099609375
1704279016032611300,0.718611328125,-0.99188232421875,-0.26739501953125,0.0210418701171875
1704279016042586400,0.72858642578125,-1.02606201171875,-0.2726287841796875,0.005645751953125
1704279016052560400,0.738560302734375,-1.0495452880859375,-0.26995849609375,0.0036468505859375
1704279016062535200,0.74853515625,-1.0494537353515625,-0.2576904296875,0.0091552734375
1704279016072509200,0.75850927734375,-1.0368194580078125,-0.2440338134765625,0.011871337890625
1704279016082484200,0.768484130859375,-1.02056884765625,-0.24798583984375,0.019195556640625
1704279016092458200,0.778458251953125,-0.9962615966796875,-0.2587890625,0.012298583984375
1704279016102433300,0.788433349609375,-0.9765625,-0.274932861328125,0.006591796875
1704279016112407300,0.7984072265625,-0.9613800048828125,-0.27301025390625,-0.002777099609375
1704279016122381300,0.80838134765625,-0.9611663818359375,-0.270477294921875,-0.0086669921875
1704279016132356000,0.818356201171875,-0.9705963134765625,-0.2778167724609375,-0.0121307373046875
1704279016142330000,0.828330078125,-0.969085693359375,-0.2727813720703125,-0.01788330078125
1704279016152305400,0.838305419921875,-0.9674835205078125,-0.2680206298828125,-0.0023040771484375
1704279016162279400,0.848279541015625,-0.9789581298828125,-0.2723388671875,0.0168304443359375
1704279016172254200,0.858254150390625,-0.9860992431640625,-0.275482177734375,0.009765625
1704279016182228200,0.868228271484375,-0.98614501953125,-0.2784576416015625,-0.005523681640625
1704279016192203300,0.878203369140625,-0.9763641357421875,-0.2784881591796875,-0.021026611328125
1704279016202177300,0.88817724609375,-0.963134765625,-0.2826385498046875,-0.01971435546875
1704279016212152300,0.89815234375,-0.958251953125,-0.288177490234375,-0.0140380859375
1704279016222126300,0.908126220703125,-0.953857421875,-0.286102294921875,-0.0102081298828125
1704279016232101000,0.91810107421875,-0.959625244140625,-0.289886474609375,-0.0117645263671875
1704279016242075100,0.9280751953125,-0.97509765625,-0.2913055419921875,-0.01129150390625
1704279016252050200,0.93805029296875,-0.9860687255859375,-0.2874755859375,-0.014617919921875
1704279016262024200,0.948024169921875,-0.98529052734375,-0.2788238525390625,0.0025177001953125
1704279016271999200,0.957999267578125,-0.967803955078125,-0.2820892333984375,0.0107421875
1704279016281974000,0.96797412109375,-0.953399658203125,-0.3021392822265625,-0.0086822509765625
1704279016291949000,0.977948974609375,-0.9347991943359375,-0.309173583984375,0.0069732666015625
1704279016301923000,0.987923095703125,-0.9326171875,-0.299407958984375,0.014801025390625
1704279016311897000,0.99789697265625,-0.9495849609375,-0.299163818359375,-0.0034637451171875
1704279016321872000,1.007871826171875,-0.9600677490234375,-0.3022613525390625,-0.0118255615234375
1704279016331846000,1.017845947265625,-0.9563140869140625,-0.3012847900390625,-0.0142822265625
1704279016341821200,1.0278212890625,-0.9571990966796875,-0.30633544921875,-0.01617431640625
1704279016351795200,1.037795166015625,-0.9620513916015625,-0.299652099609375,-0.0274810791015625
1704279016361770200,1.047770263671875,-0.9691619873046875,-0.2950286865234375,-0.0244598388671875
1704279016371744300,1.057744140625,-0.970489501953125,-0.3013763427734375,-0.020965576171875
1704279016381719000,1.067718994140625,-0.95672607421875,-0.3064727783203125,-0.0239105224609375
1704279016391693000,1.077693115234375,-0.9394378662109375,-0.3039093017578125,-0.0205078125
1704279016401668000,1.087668212890625,-0.9322967529296875,-0.3043212890625,-0.023284912109375
1704279016411642000,1.09764208984375,-0.9357452392578125,-0.3068084716796875,-0.049407958984375
1704279016421617200,1.1076171875,-0.954193115234375,-0.3022918701171875,-0.0610198974609375
1704279016431591000,1.1175908203125,-0.967071533203125,-0.2906036376953125,-0.0384368896484375
1704279016441566000,1.12756591796875,-0.9727020263671875,-0.296417236328125,-0.025482177734375
1704279016451540000,1.1375400390625,-0.9714508056640625,-0.291717529296875,-0.0325927734375
1704279016461515300,1.147515380859375,-0.9693145751953125,-0.2864227294921875,-0.0442047119140625
1704279016471489300,1.1574892578125,-0.972503662109375,-0.2902069091796875,-0.044586181640625
1704279016481464000,1.167464111328125,-0.974884033203125,-0.2888641357421875,-0.0362701416015625
1704279016491438000,1.17743798828125,-0.982421875,-0.2862091064453125,-0.034820556640625
1704279016501413000,1.1874130859375,-0.9777984619140625,-0.2884674072265625,-0.0289764404296875
1704279016511387100,1.19738720703125,-0.9603424072265625,-0.292388916015625,-0.0363311767578125
1704279016521361200,1.207361083984375,-0.9543609619140625,-0.296478271484375,-0.07244873046875
1704279016531336200,1.217336181640625,-0.9717254638671875,-0.290557861328125,-0.0361785888671875
1704279016541310000,1.22731005859375,-0.97747802734375,-0.2942352294921875,-0.0351104736328125
1704279016551285000,1.237284912109375,-0.9825897216796875,-0.298614501953125,-0.04718017578125
1704279016561259000,1.247259033203125,-0.9814453125,-0.29986572265625,-0.052276611328125
1704279016571234000,1.257234130859375,-0.972747802734375,-0.3033294677734375,-0.0521240234375
1704279016581208000,1.2672080078125,-0.955810546875,-0.3050537109375,-0.0579833984375
1704279016591183000,1.27718310546875,-0.9417877197265625,-0.313079833984375,-0.0516510009765625
1704279016601157000,1.2871572265625,-0.9318695068359375,-0.3177337646484375,-0.0443267822265625
1704279016611132200,1.297132080078125,-0.92901611328125,-0.3197174072265625,-0.03619384765625
1704279016621106200,1.307106201171875,-0.9387054443359375,-0.3254852294921875,-0.042083740234375
1704279016631081200,1.317081298828125,-0.9483489990234375,-0.3159637451171875,-0.055206298828125
1704279016641055200,1.32705517578125,-0.9608306884765625,-0.30316162109375,-0.053680419921875
1704279016651030000,1.337030029296875,-0.9769744873046875,-0.3038177490234375,-0.041351318359375
1704279016661004000,1.347004150390625,-0.9757537841796875,-0.28448486328125,-0.053375244140625
1704279016670979000,1.35697900390625,-0.9836273193359375,-0.26312255859375,-0.0714569091796875
1704279016680953000,1.366953125,-1.0034942626953125,-0.3011627197265625,-0.0735321044921875
1704279016690928000,1.37692822265625,-0.9804840087890625,-0.349395751953125,-0.0453338623046875
1704279016700902000,1.38690185546875,-0.9305572509765625,-0.34881591796875,-0.0428466796875
1704279016710877200,1.396877197265625,-0.885833740234375,-0.3284759521484375,-0.0456695556640625
1704279016720851200,1.406851318359375,-0.895355224609375,-0.361236572265625,-0.0566253662109375
1704279016730825200,1.4168251953125,-0.920562744140625,-0.34283447265625,-0.031585693359375
1704279016740800300,1.42680029296875,-0.9011993408203125,-0.339263916015625,-0.040435791015625
1704279016750774300,1.436774169921875,-0.88653564453125,-0.395751953125,-0.0617218017578125
1704279016760749000,1.4467490234375,-0.8579559326171875,-0.3588714599609375,-0.0537567138671875
1704279016770723000,1.45672314453125,-0.8135223388671875,-0.3469696044921875,-0.0112762451171875
1704279016780698000,1.466697998046875,-0.8471527099609375,-0.4026641845703125,-0.052490234375
1704279016790672100,1.476672119140625,-0.8954315185546875,-0.3918914794921875,-0.116302490234375
1704279016800647000,1.48664697265625,-0.8863525390625,-0.353546142578125,-0.105804443359375
1704279016810621000,1.496620849609375,-0.8645172119140625,-0.3516387939453125,-0.0945892333984375
1704279016820596200,1.50659619140625,-0.8593902587890625,-0.3341064453125,-0.1003265380859375
1704279016830570200,1.5165703125,-0.8563232421875,-0.3032684326171875,-0.0912017822265625
1704279016840545300,1.526545166015625,-0.8716278076171875,-0.2664031982421875,-0.1006927490234375
1704279016850519300,1.536519287109375,-0.913421630859375,-0.2968292236328125,-0.090301513671875
1704279016860494000,1.546494140625,-0.94000244140625,-0.334503173828125,-0.1113433837890625
1704279016870468000,1.556468017578125,-0.9260711669921875,-0.313446044921875,-0.1455230712890625
1704279016880443100,1.566443115234375,-0.894256591796875,-0.2688751220703125,-0.1466827392578125
1704279016890417200,1.576417236328125,-0.888214111328125,-0.2671966552734375,-0.121002197265625
1704279016900392000,1.586391845703125,-0.88653564453125,-0.2799224853515625,-0.1074676513671875
1704279016910366000,1.596365966796875,-0.8557586669921875,-0.266815185546875,-0.1072540283203125
1704279016920341000,1.606341064453125,-0.844940185546875,-0.3296661376953125,-0.17706298828125
1704279016930315000,1.61631494140625,-0.870513916015625,-0.3372955322265625,-0.203460693359375
1704279016940290300,1.626290283203125,-0.8678436279296875,-0.350860595703125,-0.218017578125
1704279016950264300,1.636264404296875,-0.8359527587890625,-0.34521484375,-0.2567291259765625
1704279016960239000,1.646239013671875,-0.7092132568359375,-0.297271728515625,-0.3471221923828125
1704279016970213000,1.656213134765625,-0.56768798828125,-0.385009765625,-0.451629638671875
1704279016980187100,1.666187255859375,-0.486968994140625,-0.50921630859375,-0.3475494384765625
1704279016990162200,1.676162109375,-0.564544677734375,-0.479095458984375,-0.249969482421875
1704279017000136200,1.68613623046875,-0.650390625,-0.3656768798828125,-0.2415771484375
1704279017010111000,1.696111083984375,-0.6766815185546875,-0.2905120849609375,-0.268341064453125
1704279017020085000,1.7060849609375,-0.7190093994140625,-0.3150787353515625,-0.298065185546875
1704279017030060000,1.71606005859375,-0.801361083984375,-0.3509674072265625,-0.3193511962890625
1704279017040034000,1.726033935546875,-0.86932373046875,-0.3727874755859375,-0.3801727294921875
1704279017050009000,1.736009033203125,-0.8764190673828125,-0.3911285400390625,-0.4486541748046875
1704279017059983000,1.745983154296875,-0.831573486328125,-0.39703369140625,-0.496673583984375
1704279017069958100,1.755958251953125,-0.7619476318359375,-0.3740386962890625,-0.5118408203125
1704279017079932200,1.76593212890625,-0.670257568359375,-0.29656982421875,-0.5793609619140625
1704279017089907200,1.7759072265625,-0.5622100830078125,-0.24322509765625,-0.6108856201171875
1704279017099881200,1.785881103515625,-0.4703826904296875,-0.21331787109375,-0.575836181640625
1704279017109856300,1.795856201171875,-0.4313507080078125,-0.1992034912109375,-0.4988861083984375
1704279017119830000,1.805830078125,-0.4287567138671875,-0.1925201416015625,-0.427886962890625
1704279017129805000,1.81580517578125,-0.457366943359375,-0.1942596435546875,-0.356903076171875
1704279017139779000,1.825779052734375,-0.4794158935546875,-0.199127197265625,-0.32049560546875
1704279017149754000,1.835754150390625,-0.4803314208984375,-0.223602294921875,-0.333465576171875
1704279017159728000,1.84572802734375,-0.488616943359375,-0.243743896484375,-0.333953857421875
1704279017169703000,1.855702880859375,-0.50390625,-0.2454071044921875,-0.3424530029296875
1704279017179677000,1.865677001953125,-0.5124664306640625,-0.2210540771484375,-0.35174560546875
1704279017189652200,1.87565234375,-0.5928192138671875,-0.2135772705078125,-0.3408660888671875
1704279017199626200,1.885626220703125,-0.6356201171875,-0.23455810546875,-0.3154449462890625
1704279017209600300,1.895600341796875,-0.6580352783203125,-0.2534942626953125,-0.3128204345703125
1704279017219575000,1.905574951171875,-0.7428131103515625,-0.2920379638671875,-0.3394317626953125
1704279017229549000,1.915549072265625,-0.8250885009765625,-0.3302001953125,-0.4080810546875
1704279017239524000,1.925524169921875,-0.8210601806640625,-0.31707763671875,-0.47894287109375
1704279017249498000,1.935498046875,-0.803924560546875,-0.2525482177734375,-0.521484375
1704279017259473200,1.94547314453125,-0.7723388671875,-0.1833038330078125,-0.5576019287109375
1704279017269447200,1.955447265625,-0.7423248291015625,-0.1298370361328125,-0.5947265625
1704279017279421400,1.96542138671875,-0.719940185546875,-0.076873779296875,-0.6287994384765625
1704279017289395500,1.9753955078125,-0.691741943359375,-0.0301361083984375,-0.6949005126953125
1704279017299370200,1.985370361328125,-0.6682586669921875,0.012908935546875,-0.7446746826171875
1704279017309344300,1.99534423828125,-0.63641357421875,0.0449981689453125,-0.7640228271484375
1704279017319319300,2.0053193359375,-0.5842437744140625,0.057525634765625,-0.7559967041015625
1704279017329293300,2.015293212890625,-0.5486907958984375,0.058990478515625,-0.727813720703125
1704279017339268400,2.025268310546875,-0.5670318603515625,0.0464630126953125,-0.68621826171875
1704279017349242400,2.035242431640625,-0.60650634765625,0.027984619140625,-0.6296234130859375
1704279017359217400,2.045217529296875,-0.62847900390625,0.0304412841796875,-0.59271240234375
1704279017369191400,2.05519140625,-0.6193389892578125,0.0428314208984375,-0.60711669921875
1704279017379166500,2.06516650390625,-0.5728607177734375,0.0948028564453125,-0.6205596923828125
1704279017389140500,2.075140380859375,-0.4884796142578125,0.1634979248046875,-0.6553802490234375
1704279017399115300,2.085115234375,-0.41094970703125,0.205902099609375,-0.6710357666015625
1704279017409089300,2.09508935546875,-0.3510894775390625,0.24658203125,-0.6743011474609375
1704279017419064300,2.105064208984375,-0.313201904296875,0.2890777587890625,-0.690887451171875
1704279017429038300,2.115038330078125,-0.293914794921875,0.3217620849609375,-0.7283477783203125
1704279017439013000,2.12501318359375,-0.2846527099609375,0.3626251220703125,-0.7700347900390625
1704279017448987100,2.134987060546875,-0.2813873291015625,0.4117889404296875,-0.82403564453125
1704279017458962400,2.14496240234375,-0.2847747802734375,0.4615478515625,-0.8823089599609375
1704279017468936400,2.1549365234375,-0.290924072265625,0.4989166259765625,-0.9332275390625
1704279017478910500,2.164910400390625,-0.2872467041015625,0.5166168212890625,-0.94384765625
1704279017488885500,2.174885498046875,-0.294189453125,0.5960845947265625,-0.9926300048828125
1704279017498859500,2.184859619140625,-0.307891845703125,0.66943359375,-1.0545196533203125
1704279017508834300,2.194834228515625,-0.315948486328125,0.730865478515625,-1.1144256591796875
1704279017518808300,2.204808349609375,-0.3138427734375,0.79107666015625,-1.189239501953125
1704279017528783400,2.214783447265625,-0.3221282958984375,0.8410186767578125,-1.274169921875
1704279017538757400,2.22475732421875,-0.3481903076171875,0.88336181640625,-1.360443115234375
1704279017548732200,2.234732177734375,-0.3766326904296875,0.903533935546875,-1.4381103515625
1704279017558706200,2.2447060546875,-0.377105712890625,0.890228271484375,-1.4857177734375
1704279017568681200,2.25468115234375,-0.3591766357421875,0.8811492919921875,-1.546234130859375
1704279017578655200,2.2646552734375,-0.3345794677734375,0.8736419677734375,-1.6172943115234375
1704279017588630500,2.274630615234375,-0.2993621826171875,0.8690032958984375,-1.6574554443359375
1704279017598604500,2.2846044921875,-0.2450103759765625,0.8615570068359375,-1.664093017578125
1704279017608579300,2.294579345703125,-0.1842498779296875,0.852020263671875,-1.6520538330078125
1704279017618553300,2.30455322265625,-0.1281890869140625,0.8450775146484375,-1.636444091796875
1704279017628528400,2.3145283203125,-0.0817718505859375,0.828460693359375,-1.6324920654296875
1704279017638502400,2.32450244140625,-0.045989990234375,0.8062744140625,-1.6360931396484375
1704279017648477400,2.3344775390625,-0.0260467529296875,0.782440185546875,-1.6511688232421875
1704279017658451200,2.344451171875,-0.0112457275390625,0.761444091796875,-1.67132568359375
1704279017668426200,2.35442626953125,-0.0113067626953125,0.743988037109375,-1.6958770751953125
1704279017678400300,2.364400146484375,-0.0234527587890625,0.7174835205078125,-1.7060699462890625
1704279017688375300,2.374375244140625,-0.0369415283203125,0.6804656982421875,-1.69354248046875
1704279017698349300,2.384349365234375,-0.0487823486328125,0.6404571533203125,-1.660614013671875
1704279017708324400,2.394324462890625,-0.052978515625,0.5972442626953125,-1.6156463623046875
1704279017718298400,2.40429833984375,-0.0506744384765625,0.560699462890625,-1.5639495849609375
1704279017728273400,2.4142734375,-0.04937744140625,0.5402069091796875,-1.518157958984375
1704279017738247400,2.424247314453125,-0.04571533203125,0.5175323486328125,-1.4790496826171875
1704279017748222500,2.434222412109375,-0.056304931640625,0.47613525390625,-1.42425537109375
1704279017758196500,2.444196533203125,-0.079559326171875,0.4380035400390625,-1.370880126953125
1704279017768170200,2.454170166015625,-0.1042327880859375,0.40765380859375,-1.3266143798828125
1704279017778145300,2.464145263671875,-0.12139892578125,0.389862060546875,-1.298675537109375
1704279017788119300,2.474119384765625,-0.1266326904296875,0.383544921875,-1.281524658203125
1704279017798094300,2.48409423828125,-0.1298980712890625,0.3740997314453125,-1.2629241943359375
1704279017808068400,2.494068359375,-0.1360321044921875,0.34722900390625,-1.2381744384765625
1704279017818043400,2.50404345703125,-0.1409912109375,0.3083038330078125,-1.2102508544921875
1704279017828017200,2.51401708984375,-0.1405487060546875,0.2763214111328125,-1.1811065673828125
1704279017837992400,2.523992431640625,-0.1325836181640625,0.254669189453125,-1.163360595703125
1704279017847966500,2.533966552734375,-0.1176910400390625,0.2427520751953125,-1.1628875732421875
1704279017857941500,2.54394140625,-0.10662841796875,0.2257843017578125,-1.1624908447265625
1704279017867915300,2.553915283203125,-0.0972137451171875,0.199798583984375,-1.1512451171875
1704279017877890300,2.563890380859375,-0.0842132568359375,0.1696624755859375,-1.1306610107421875
1704279017887864300,2.5738642578125,-0.070068359375,0.1452484130859375,-1.1108245849609375
1704279017897839400,2.58383935546875,-0.0556793212890625,0.1281280517578125,-1.097991943359375
1704279017907813400,2.5938134765625,-0.0443572998046875,0.11688232421875,-1.0933380126953125
1704279017917788200,2.6037880859375,-0.0338287353515625,0.10858154296875,-1.09344482421875
1704279017927762200,2.61376220703125,-0.025238037109375,0.1065826416015625,-1.104278564453125
1704279017937737500,2.623737548828125,-0.0162811279296875,0.1170501708984375,-1.1211395263671875
1704279017947711500,2.63371142578125,-0.0106201171875,0.1277313232421875,-1.1345367431640625
1704279017957686500,2.6436865234375,-0.0076751708984375,0.140838623046875,-1.150726318359375
1704279017967660500,2.65366064453125,-0.0088958740234375,0.15667724609375,-1.1588134765625
1704279017977635300,2.66363525390625,-0.0120697021484375,0.1764678955078125,-1.1662445068359375
1704279017987609300,2.673609375,-0.0173492431640625,0.20977783203125,-1.188629150390625
1704279017997584400,2.68358447265625,-0.022552490234375,0.2509307861328125,-1.20989990234375
1704279018007558400,2.693558349609375,-0.0433807373046875,0.2728271484375,-1.2165069580078125
1704279018017533200,2.703533203125,-0.05047607421875,0.3072357177734375,-1.233795166015625
1704279018027507200,2.713507080078125,-0.06439208984375,0.348052978515625,-1.2460479736328125
1704279018037482200,2.723482177734375,-0.075103759765625,0.3828125,-1.26287841796875
1704279018047456300,2.733456298828125,-0.083587646484375,0.4083709716796875,-1.27154541015625
1704279018057431600,2.743431640625,-0.0881805419921875,0.4302825927734375,-1.2777862548828125
1704279018067405600,2.753405517578125,-0.0869140625,0.450531005859375,-1.287109375
1704279018077379600,2.763379638671875,-0.0815277099609375,0.47686767578125,-1.304962158203125
1704279018087354400,2.773354248046875,-0.0783538818359375,0.50518798828125,-1.3145294189453125
1704279018097328400,2.783328369140625,-0.0750732421875,0.5282745361328125,-1.316650390625
1704279018107303400,2.793303466796875,-0.069610595703125,0.5392303466796875,-1.309173583984375
1704279018117277400,2.80327734375,-0.05987548828125,0.5436859130859375,-1.2942047119140625
1704279018127252200,2.813252197265625,-0.0511932373046875,0.5483551025390625,-1.275726318359375
1704279018137226200,2.823226318359375,-0.040618896484375,0.5514984130859375,-1.2586822509765625
1704279018147201300,2.833201171875,-0.0258331298828125,0.5521697998046875,-1.2454681396484375
1704279018157175300,2.84317529296875,-0.020294189453125,0.5516204833984375,-1.230316162109375
1704279018167150300,2.853150390625,-0.021759033203125,0.564239501953125,-1.2273712158203125
1704279018177124400,2.863124267578125,-0.0196380615234375,0.59735107421875,-1.2411956787109375
1704279018187099400,2.873099365234375,-0.0139007568359375,0.643707275390625,-1.26416015625
1704279018197073400,2.883073486328125,-0.0114593505859375,0.693267822265625,-1.295867919921875
1704279018207048400,2.89304833984375,-0.01422119140625,0.7473297119140625,-1.329437255859375
1704279018217022500,2.9030224609375,-0.01654052734375,0.8017730712890625,-1.362945556640625
1704279018226997200,2.912997314453125,-0.0183258056640625,0.857025146484375,-1.3997650146484375
1704279018236971300,2.92297119140625,-0.0198974609375,0.908966064453125,-1.432159423828125
1704279018246946300,2.9329462890625,-0.022674560546875,0.955474853515625,-1.445709228515625
1704279018256920300,2.94292041015625,-0.02716064453125,0.98138427734375,-1.4412994384765625
1704279018266895400,2.952895263671875,-0.0296478271484375,0.98260498046875,-1.4301910400390625
1704279018276869400,2.962869384765625,-0.0330047607421875,0.963348388671875,-1.416351318359375
1704279018286845000,2.972844970703125,-0.03753662109375,0.946136474609375,-1.4089508056640625
1704279018296819000,2.98281884765625,-0.044464111328125,0.938323974609375,-1.4022674560546875
1704279018306794000,2.9927939453125,-0.05072021484375,0.928924560546875,-1.3922576904296875
1704279018316768000,3.00276806640625,-0.056671142578125,0.9123992919921875,-1.366790771484375
1704279018326742800,3.01274267578125,-0.060302734375,0.8883819580078125,-1.331878662109375
1704279018336716800,3.022716796875,-0.066375732421875,0.85986328125,-1.288482666015625
1704279018346691800,3.03269189453125,-0.0741729736328125,0.8293304443359375,-1.23895263671875
1704279018356665900,3.042665771484375,-0.081451416015625,0.7973175048828125,-1.191680908203125
1704279018366641000,3.052640869140625,-0.0885467529296875,0.7661285400390625,-1.151824951171875
1704279018376615000,3.062614990234375,-0.0936431884765625,0.7467803955078125,-1.11669921875
1704279018386590000,3.07258984375,-0.0946044921875,0.7353973388671875,-1.0853271484375
1704279018396564000,3.08256396484375,-0.0949859619140625,0.7301177978515625,-1.0566253662109375
1704279018406539000,3.0925390625,-0.0940704345703125,0.723480224609375,-1.027008056640625
1704279018416513000,3.102512939453125,-0.09228515625,0.7125396728515625,-0.992919921875
1704279018426487800,3.11248779296875,-0.09002685546875,0.700286865234375,-0.961700439453125
1704279018436461800,3.1224619140625,-0.091339111328125,0.692108154296875,-0.9303436279296875
1704279018446436900,3.132436767578125,-0.091522216796875,0.6903076171875,-0.8991241455078125
1704279018456411000,3.142410888671875,-0.088836669921875,0.683929443359375,-0.86505126953125
1704279018466385000,3.152385009765625,-0.0792999267578125,0.6649932861328125,-0.82403564453125
1704279018476360000,3.16235986328125,-0.07208251953125,0.635284423828125,-0.7793121337890625
1704279018486334000,3.172333984375,-0.06280517578125,0.6015167236328125,-0.7350006103515625
1704279018496308700,3.182308837890625,-0.0504150390625,0.56982421875,-0.6965484619140625
1704279018506282800,3.19228271484375,-0.04150390625,0.5399017333984375,-0.6608734130859375
1704279018516258000,3.202258056640625,-0.0388641357421875,0.5088653564453125,-0.6290435791015625
1704279018526232000,3.212232177734375,-0.039215087890625,0.4761505126953125,-0.5997467041015625
1704279018536206800,3.222206787109375,-0.04022216796875,0.4490509033203125,-0.570098876953125
1704279018546180900,3.232180908203125,-0.0429229736328125,0.42724609375,-0.5379486083984375
1704279018556156000,3.242156005859375,-0.044281005859375,0.4071502685546875,-0.5067596435546875
1704279018566130000,3.2521298828125,-0.0473480224609375,0.3891448974609375,-0.4730224609375
1704279018576105000,3.26210498046875,-0.04803466796875,0.3729705810546875,-0.4408416748046875
1704279018586079000,3.272078857421875,-0.0481719970703125,0.36187744140625,-0.410369873046875
1704279018596053800,3.2820537109375,-0.045562744140625,0.3536224365234375,-0.3767852783203125
1704279018606027800,3.29202783203125,-0.039947509765625,0.3473358154296875,-0.3480224609375
1704279018616002800,3.3020029296875,-0.02716064453125,0.3428497314453125,-0.3218994140625
1704279018625976800,3.311976806640625,-0.0117340087890625,0.3384246826171875,-0.3056488037109375
1704279018635951900,3.321951904296875,0.01202392578125,0.3558807373046875,-0.3110809326171875
1704279018645926000,3.33192578125,0.0229644775390625,0.3715667724609375,-0.3140869140625
1704279018655901000,3.34190087890625,0.031463623046875,0.384857177734375,-0.3227386474609375
1704279018665875000,3.351875,0.0472259521484375,0.41668701171875,-0.350006103515625
1704279018675850000,3.36185009765625,0.0645294189453125,0.46893310546875,-0.390472412109375
1704279018685824000,3.371823974609375,0.0808258056640625,0.5230560302734375,-0.44097900390625
1704279018695798800,3.381798828125,0.0934906005859375,0.56451416015625,-0.488983154296875
1704279018705772800,3.391772705078125,0.100341796875,0.5898590087890625,-0.5374908447265625
1704279018715747800,3.401747802734375,0.103057861328125,0.6166839599609375,-0.592010498046875
1704279018725721900,3.411721923828125,0.087615966796875,0.639373779296875,-0.6570892333984375
1704279018735697000,3.42169677734375,0.063720703125,0.659393310546875,-0.7234344482421875
1704279018745671000,3.4316708984375,0.04534912109375,0.6926422119140625,-0.8032073974609375
1704279018755646000,3.44164599609375,0.0265350341796875,0.7440948486328125,-0.9107666015625
1704279018765620000,3.451619873046875,0.0060577392578125,0.7930145263671875,-1.019805908203125
1704279018775595000,3.461594970703125,0.0239105224609375,0.878204345703125,-1.1573486328125
1704279018785569000,3.471569091796875,0.0253448486328125,0.96075439453125,-1.2964019775390625
1704279018795543800,3.481543701171875,0.004669189453125,1.0080718994140625,-1.396636962890625
1704279018805517800,3.491517822265625,-0.0140838623046875,1.0250244140625,-1.4518890380859375
1704279018815492900,3.501492919921875,-0.0336761474609375,1.01123046875,-1.4890594482421875
1704279018825467000,3.511466796875,-0.0557861328125,0.97222900390625,-1.5027923583984375
1704279018835442000,3.52144189453125,-0.0721435546875,0.9206695556640625,-1.5009613037109375
1704279018845416000,3.531416015625,-0.0788116455078125,0.8706512451171875,-1.501007080078125
1704279018855390700,3.541390625,-0.0841064453125,0.829010009765625,-1.506561279296875
1704279018865364700,3.55136474609375,-0.0860443115234375,0.79083251953125,-1.51568603515625
1704279018875340000,3.561340087890625,-0.078704833984375,0.7547454833984375,-1.5272064208984375
1704279018885314000,3.57131396484375,-0.054779052734375,0.73553466796875,-1.5628662109375
1704279018895288800,3.581288818359375,-0.037689208984375,0.7268218994140625,-1.6176300048828125
1704279018905262800,3.591262939453125,-0.0291900634765625,0.7081298828125,-1.67626953125
1704279018915238000,3.60123779296875,-0.026214599609375,0.6959686279296875,-1.7219390869140625
1704279018925212000,3.6112119140625,-0.0129547119140625,0.6724700927734375,-1.7408599853515625
1704279018935187000,3.62118701171875,0.0102996826171875,0.6491546630859375,-1.7349700927734375
1704279018945161000,3.631160888671875,0.026641845703125,0.6258544921875,-1.723724365234375
1704279018955135700,3.6411357421875,0.0282440185546875,0.6014404296875,-1.6969451904296875
1704279018965109800,3.65110986328125,0.0166168212890625,0.5807647705078125,-1.655181884765625
1704279018975083800,3.661083740234375,-0.0106658935546875,0.559661865234375,-1.6027984619140625
1704279018985058800,3.671058837890625,-0.046112060546875,0.542877197265625,-1.5391693115234375
1704279018995032800,3.68103271484375,-0.087127685546875,0.54241943359375,-1.4921875
1704279019005008000,3.6910078125,-0.123016357421875,0.51092529296875,-1.430084228515625
1704279019014982000,3.70098193359375,-0.1471710205078125,0.4787750244140625,-1.3602294921875
1704279019024957000,3.71095703125,-0.1591644287109375,0.4592132568359375,-1.3062286376953125
1704279019034931000,3.720930908203125,-0.176422119140625,0.433563232421875,-1.2641754150390625
1704279019044906000,3.730906005859375,-0.196044921875,0.3990936279296875,-1.2236328125
1704279019054880000,3.7408798828125,-0.2099456787109375,0.3608856201171875,-1.175750732421875
1704279019064854800,3.750854736328125,-0.2104339599609375,0.3276519775390625,-1.1370086669921875
1704279019074828800,3.760828857421875,-0.2088775634765625,0.2893829345703125,-1.103546142578125
1704279019084803800,3.770803955078125,-0.1802825927734375,0.282440185546875,-1.09600830078125
1704279019094777900,3.78077783203125,-0.1546173095703125,0.2730560302734375,-1.0820770263671875
1704279019104753000,3.7907529296875,-0.168548583984375,0.2207183837890625,-1.0333251953125
1704279019114726700,3.8007265625,-0.1674346923828125,0.192230224609375,-0.999176025390625
1704279019124702000,3.810701904296875,-0.152252197265625,0.178558349609375,-0.988616943359375
1704279019134676000,3.820676025390625,-0.1362762451171875,0.1671600341796875,-0.986114501953125
1704279019144651000,3.830651123046875,-0.1229400634765625,0.155303955078125,-0.9838104248046875
1704279019154625000,3.840625,-0.1148529052734375,0.1421661376953125,-0.9752655029296875
1704279019164599800,3.850599853515625,-0.1099853515625,0.128265380859375,-0.9630279541015625
1704279019174573800,3.86057373046875,-0.10723876953125,0.112091064453125,-0.9520721435546875
1704279019184548900,3.870548828125,-0.105621337890625,0.094482421875,-0.9494781494140625
1704279019194523000,3.88052294921875,-0.107452392578125,0.078338623046875,-0.9561004638671875
1704279019204498000,3.890497802734375,-0.1089935302734375,0.06622314453125,-0.958282470703125
1704279019214472000,3.900471923828125,-0.1087188720703125,0.059967041015625,-0.9569091796875
1704279019224447000,3.910447021484375,-0.1074676513671875,0.059600830078125,-0.95855712890625
1704279019234420700,3.920420654296875,-0.1059722900390625,0.0698394775390625,-0.969146728515625
1704279019244396000,3.93039599609375,-0.1043701171875,0.0821380615234375,-0.9757080078125
1704279019254370000,3.9403701171875,-0.103485107421875,0.0963287353515625,-0.978302001953125
1704279019264344800,3.9503447265625,-0.10235595703125,0.1112060546875,-0.9837646484375
1704279019274318800,3.96031884765625,-0.099578857421875,0.1298370361328125,-0.9916229248046875
1704279019284293400,3.97029345703125,-0.0947265625,0.1483917236328125,-0.997222900390625
1704279019294267400,3.980267333984375,-0.090667724609375,0.1671142578125,-1.0040130615234375
1704279019304242400,3.990242431640625,-0.086029052734375,0.1873626708984375,-1.0060882568359375
1704279019314216400,4.000216552734375,-0.0826416015625,0.2097930908203125,-1.0105133056640625
1704279019324191200,4.010191162109375,-0.080841064453125,0.2405242919921875,-1.0212249755859375
1704279019334165200,4.020165283203125,-0.0836639404296875,0.2730712890625,-1.0417938232421875
1704279019344140300,4.030140380859375,-0.0910797119140625,0.3074188232421875,-1.0667572021484375
1704279019354114300,4.0401142578125,-0.0980682373046875,0.3398284912109375,-1.1025238037109375
1704279019364089300,4.05008935546875,-0.1037750244140625,0.36865234375,-1.1348724365234375
1704279019374063400,4.0600634765625,-0.10394287109375,0.39837646484375,-1.1677398681640625
1704279019384038400,4.070038330078125,-0.1021270751953125,0.427520751953125,-1.2049407958984375
1704279019394012400,4.080012451171875,-0.09759521484375,0.452789306640625,-1.2406158447265625
1704279019403987500,4.089987548828125,-0.0886688232421875,0.4745330810546875,-1.2877349853515625
1704279019413961500,4.09996142578125,-0.0823822021484375,0.5088348388671875,-1.3530120849609375
1704279019423936300,4.109936279296875,-0.0764923095703125,0.5645599365234375,-1.4363250732421875
1704279019433910300,4.11991015625,-0.074310302734375,0.629638671875,-1.5124359130859375
1704279019443885300,4.12988525390625,-0.07421875,0.679656982421875,-1.5592041015625
1704279019453859300,4.139859375,-0.075225830078125,0.717559814453125,-1.589019775390625
1704279019463834400,4.14983447265625,-0.085784912109375,0.7413330078125,-1.5858917236328125
1704279019473808400,4.159808349609375,-0.093780517578125,0.734893798828125,-1.547088623046875
1704279019483783200,4.169783203125,-0.111053466796875,0.70611572265625,-1.4880523681640625
1704279019493757200,4.179757080078125,-0.12237548828125,0.6548309326171875,-1.4177703857421875
1704279019503732500,4.189732421875,-0.1119842529296875,0.6124420166015625,-1.35675048828125
1704279019513706500,4.19970654296875,-0.0956573486328125,0.6109619140625,-1.331817626953125
1704279019523681300,4.209681396484375,-0.07867431640625,0.6372833251953125,-1.346649169921875
1704279019533655300,4.2196552734375,-0.0604400634765625,0.6791839599609375,-1.379547119140625
1704279019543630300,4.22963037109375,-0.051025390625,0.7292938232421875,-1.4232330322265625
1704279019553604400,4.239604248046875,-0.048553466796875,0.780487060546875,-1.4790802001953125
1704279019563579400,4.249579345703125,-0.04925537109375,0.82647705078125,-1.53009033203125
1704279019573553400,4.259553466796875,-0.043365478515625,0.856658935546875,-1.5699310302734375
1704279019583528200,4.269528076171875,-0.0372772216796875,0.8751068115234375,-1.6016082763671875
1704279019593502200,4.279502197265625,-0.038787841796875,0.8817291259765625,-1.627532958984375
1704279019603477200,4.289477294921875,-0.04864501953125,0.8796234130859375,-1.6378173828125
1704279019613451300,4.299451171875,-0.0617828369140625,0.8795623779296875,-1.621368408203125
1704279019623426600,4.309426513671875,-0.080657958984375,0.8817596435546875,-1.5916748046875
1704279019633400300,4.319400390625,-0.10260009765625,0.8804168701171875,-1.558868408203125
1704279019643375400,4.329375244140625,-0.1167755126953125,0.86737060546875,-1.510345458984375
1704279019653349400,4.339349365234375,-0.124420166015625,0.856658935546875,-1.4399566650390625
1704279019663324400,4.349324462890625,-0.128173828125,0.8359222412109375,-1.3673095703125
1704279019673298400,4.35929833984375,-0.124786376953125,0.8105010986328125,-1.293243408203125
1704279019683273200,4.369273193359375,-0.124298095703125,0.780731201171875,-1.22528076171875
1704279019693247200,4.379247314453125,-0.122039794921875,0.7542877197265625,-1.1735992431640625
1704279019703222300,4.38922216796875,-0.1105194091796875,0.7261962890625,-1.1283416748046875
1704279019713196300,4.3991962890625,-0.0977630615234375,0.6980743408203125,-1.08697509765625
1704279019723171300,4.40917138671875,-0.0906982421875,0.6735992431640625,-1.0501861572265625
1704279019733145300,4.419145263671875,-0.0869293212890625,0.64923095703125,-1.0164337158203125
1704279019743120400,4.429120361328125,-0.0888214111328125,0.6251220703125,-0.98248291015625
1704279019753094400,4.439094482421875,-0.0946044921875,0.6034393310546875,-0.9500579833984375
1704279019763069400,4.4490693359375,-0.1002349853515625,0.5839080810546875,-0.9182891845703125
1704279019773043500,4.45904345703125,-0.1045379638671875,0.5722808837890625,-0.886810302734375
1704279019783018200,4.469018310546875,-0.102935791015625,0.554351806640625,-0.8446502685546875
1704279019792992300,4.4789921875,-0.097137451171875,0.538970947265625,-0.80267333984375
1704279019802967300,4.48896728515625,-0.09320068359375,0.5212554931640625,-0.7574615478515625
1704279019812941300,4.49894140625,-0.0899810791015625,0.502777099609375,-0.710601806640625
1704279019822916400,4.508916259765625,-0.0850830078125,0.4781494140625,-0.66278076171875
1704279019832890400,4.518890380859375,-0.0847930908203125,0.4499053955078125,-0.61700439453125
1704279019842865400,4.528865478515625,-0.0878448486328125,0.426544189453125,-0.5786895751953125
1704279019852839400,4.53883935546875,-0.08905029296875,0.400909423828125,-0.54010009765625
1704279019862814500,4.548814453125,-0.0823516845703125,0.3812713623046875,-0.5040130615234375
1704279019872788500,4.55878857421875,-0.0712127685546875,0.3663787841796875,-0.46978759765625
1704279019882763300,4.56876318359375,-0.0561981201171875,0.3539581298828125,-0.4419097900390625
1704279019892737300,4.5787373046875,-0.042633056640625,0.3463592529296875,-0.4205780029296875
1704279019902712300,4.58871240234375,-0.028717041015625,0.346160888671875,-0.4061431884765625
1704279019912686300,4.598686279296875,-0.01629638671875,0.351409912109375,-0.39971923828125
1704279019922661400,4.608661376953125,-0.0072174072265625,0.36260986328125,-0.40069580078125
1704279019932635400,4.618635498046875,0.0002899169921875,0.3774566650390625,-0.4066314697265625
1704279019942610200,4.628610107421875,0.00640869140625,0.394866943359375,-0.4161834716796875
1704279019952584200,4.638584228515625,0.0146484375,0.4162750244140625,-0.424224853515625
1704279019962559500,4.6485595703125,0.0234222412109375,0.4310760498046875,-0.424560546875
1704279019972533500,4.658533447265625,0.0332183837890625,0.4439849853515625,-0.4180755615234375
1704279019982508500,4.668508544921875,0.0408935546875,0.4589691162109375,-0.415924072265625
1704279019992482300,4.678482421875,0.0489044189453125,0.470428466796875,-0.4247589111328125
1704279020002457300,4.688457275390625,0.0557861328125,0.4828948974609375,-0.443756103515625
1704279020012431400,4.698431396484375,0.0587158203125,0.501708984375,-0.4757537841796875
1704279020022406400,4.708406494140625,0.0573883056640625,0.533172607421875,-0.53070068359375
1704279020032380400,4.71838037109375,0.056365966796875,0.5838623046875,-0.6162872314453125
1704279020042355200,4.728355224609375,0.0489654541015625,0.651031494140625,-0.7229766845703125
1704279020052329200,4.7383291015625,0.03411865234375,0.7173004150390625,-0.8258514404296875
1704279020062304300,4.74830419921875,0.0179290771484375,0.7698516845703125,-0.917572021484375
1704279020072278300,4.7582783203125,0.002166748046875,0.7910614013671875,-1.0067901611328125
1704279020082253600,4.768253662109375,-0.0142974853515625,0.798492431640625,-1.0761871337890625
1704279020092227600,4.7782275390625,-0.038726806640625,0.786834716796875,-1.10321044921875
1704279020102202400,4.788202392578125,-0.0615234375,0.75982666015625,-1.1169891357421875
1704279020112176400,4.79817626953125,-0.0791473388671875,0.7379913330078125,-1.1478271484375
1704279020122151400,4.8081513671875,-0.0960540771484375,0.714385986328125,-1.2011566162109375
1704279020132125400,4.81812548828125,-0.1202239990234375,0.6934967041015625,-1.28436279296875
1704279020142100200,4.828100341796875,-0.1469573974609375,0.6792449951171875,-1.38043212890625
1704279020152074200,4.83807421875,-0.162567138671875,0.6635589599609375,-1.47247314453125
1704279020162049300,4.84804931640625,-0.1605987548828125,0.6516265869140625,-1.558563232421875
1704279020172023300,4.858023193359375,-0.1395263671875,0.6553497314453125,-1.636627197265625
1704279020181997300,4.867997314453125,-0.0999755859375,0.6676788330078125,-1.6953887939453125
1704279020191972400,4.877972412109375,-0.053131103515625,0.68341064453125,-1.7310028076171875
1704279020201947400,4.887947509765625,-0.00213623046875,0.6917877197265625,-1.7522735595703125
1704279020211921400,4.89792138671875,0.0369415283203125,0.6956634521484375,-1.762969970703125
1704279020221896400,4.907896484375,0.0613861083984375,0.6897430419921875,-1.7550048828125
1704279020231870500,4.917870361328125,0.106689453125,0.7007904052734375,-1.8033447265625
1704279020241845200,4.92784521484375,0.1180419921875,0.710723876953125,-1.8071441650390625
1704279020251819300,4.9378193359375,0.103851318359375,0.703643798828125,-1.7835693359375
1704279020261794300,4.947794189453125,0.0764923095703125,0.6863861083984375,-1.7481842041015625
1704279020271768300,4.957768310546875,0.030181884765625,0.6694183349609375,-1.6919403076171875
1704279020281743400,4.967743408203125,-0.0290069580078125,0.659759521484375,-1.6333465576171875
1704279020291717400,4.97771728515625,-0.0921478271484375,0.6499176025390625,-1.577239990234375
1704279020301692200,4.987692138671875,-0.1479949951171875,0.6369476318359375,-1.519744873046875
1704279020311666200,4.997666259765625,-0.1923065185546875,0.6165008544921875,-1.4543609619140625
1704279020321641200,5.00764111328125,-0.2285003662109375,0.5873565673828125,-1.378814697265625
1704279020331615200,5.017615234375,-0.2518310546875,0.55010986328125,-1.3118896484375
1704279020341590300,5.02759033203125,-0.262908935546875,0.5091094970703125,-1.2635498046875
1704279020351564300,5.037564208984375,-0.2599945068359375,0.4699249267578125,-1.2429046630859375
1704279020361539000,5.0475390625,-0.253692626953125,0.436126708984375,-1.2382049560546875
1704279020371513000,5.05751318359375,-0.2486724853515625,0.4030303955078125,-1.2282257080078125
1704279020381488400,5.06748828125,-0.242767333984375,0.3697967529296875,-1.2214813232421875
1704279020391462400,5.07746240234375,-0.239044189453125,0.339263916015625,-1.2165069580078125
1704279020401437200,5.087437255859375,-0.2342376708984375,0.3116912841796875,-1.2042388916015625
1704279020411411200,5.0974111328125,-0.22662353515625,0.285430908203125,-1.1899871826171875
1704279020421386200,5.10738623046875,-0.2163543701171875,0.264068603515625,-1.17645263671875
1704279020431360300,5.1173603515625,-0.2020721435546875,0.2435302734375,-1.15716552734375
1704279020441335300,5.127335205078125,-0.186431884765625,0.22222900390625,-1.135894775390625
1704279020451309300,5.137309326171875,-0.1748199462890625,0.2012786865234375,-1.1187591552734375
1704279020461284000,5.1472841796875,-0.1646881103515625,0.1768951416015625,-1.101409912109375
1704279020471258000,5.157258056640625,-0.15625,0.1522979736328125,-1.0842437744140625
1704279020481233200,5.167233154296875,-0.1531524658203125,0.1297454833984375,-1.06842041015625
1704279020491207200,5.177207275390625,-0.1490478515625,0.1114959716796875,-1.05645751953125
1704279020501182200,5.18718212890625,-0.1456451416015625,0.0998687744140625,-1.0461578369140625
1704279020511156200,5.19715625,-0.1424407958984375,0.0940704345703125,-1.0339508056640625
1704279020521131300,5.20713134765625,-0.142059326171875,0.08795166015625,-1.0213775634765625
1704279020531105300,5.217105224609375,-0.1397247314453125,0.0806732177734375,-1.0049285888671875
1704279020541080300,5.227080322265625,-0.1298828125,0.0776824951171875,-0.987457275390625
1704279020551054300,5.237054443359375,-0.116424560546875,0.083831787109375,-0.9718475341796875
1704279020561029000,5.247029052734375,-0.10638427734375,0.1019134521484375,-0.97320556640625
1704279020571003100,5.257003173828125,-0.09942626953125,0.1259765625,-0.9891815185546875
1704279020580978200,5.266978271484375,-0.09619140625,0.1526641845703125,-1.0145416259765625
1704279020590952200,5.2769521484375,-0.09405517578125,0.1813812255859375,-1.0460052490234375
1704279020600927200,5.28692724609375,-0.091705322265625,0.20703125,-1.08502197265625
1704279020610901000,5.29690087890625,-0.08514404296875,0.225189208984375,-1.1216583251953125
1704279020620876300,5.306876220703125,-0.07586669921875,0.228973388671875,-1.142852783203125
1704279020630850300,5.316850341796875,-0.06475830078125,0.2209320068359375,-1.1644134521484375
1704279020640825300,5.326825439453125,-0.0640106201171875,0.2177581787109375,-1.198150634765625
1704279020650799400,5.33679931640625,-0.0687713623046875,0.236907958984375,-1.243255615234375
1704279020660774100,5.346774169921875,-0.076324462890625,0.280548095703125,-1.3096771240234375
1704279020670748200,5.356748046875,-0.0893096923828125,0.3392486572265625,-1.387542724609375
1704279020680723200,5.36672314453125,-0.103973388671875,0.4043121337890625,-1.4593658447265625
1704279020690697200,5.376697265625,-0.1151275634765625,0.4688568115234375,-1.5141754150390625
1704279020700672300,5.38667236328125,-0.129119873046875,0.530731201171875,-1.5501861572265625
1704279020710646300,5.396646240234375,-0.1431427001953125,0.5792388916015625,-1.55438232421875
1704279020720621000,5.40662109375,-0.153472900390625,0.60015869140625,-1.5244598388671875
1704279020730595000,5.416594970703125,-0.1538848876953125,0.584747314453125,-1.4670257568359375
1704279020740570400,5.4265703125,-0.1482086181640625,0.5550537109375,-1.407196044921875
1704279020750544400,5.43654443359375,-0.133758544921875,0.52642822265625,-1.361572265625
1704279020760519200,5.446519287109375,-0.1127471923828125,0.510009765625,-1.3371734619140625
1704279020770493200,5.4564931640625,-0.09246826171875,0.5159759521484375,-1.3409576416015625
1704279020780468200,5.46646826171875,-0.0764923095703125,0.5453948974609375,-1.370574951171875
1704279020790442200,5.476442138671875,-0.0687713623046875,0.594482421875,-1.4257659912109375
1704279020800417300,5.486417236328125,-0.0600738525390625,0.660980224609375,-1.4977264404296875
1704279020810391300,5.496391357421875,-0.0494537353515625,0.743896484375,-1.56304931640625
1704279020820366000,5.506365966796875,-0.037384033203125,0.8223724365234375,-1.607635498046875
1704279020830340000,5.516340087890625,-0.0392608642578125,0.888092041015625,-1.63946533203125
1704279020840315400,5.5263154296875,-0.062469482421875,0.938568115234375,-1.6600799560546875
1704279020850289400,5.536289306640625,-0.08349609375,0.9771881103515625,-1.6629638671875
1704279020860264200,5.54626416015625,-0.0962066650390625,1.016204833984375,-1.651824951171875
1704279020870238200,5.55623828125,-0.10687255859375,1.0439910888671875,-1.6205291748046875
1704279020880213200,5.566213134765625,-0.1172943115234375,1.050628662109375,-1.56756591796875
1704279020890187300,5.576187255859375,-0.1304473876953125,1.03521728515625,-1.50054931640625
1704279020900162300,5.586162353515625,-0.1339569091796875,0.993255615234375,-1.4251861572265625
1704279020910136300,5.59613623046875,-0.1354217529296875,0.9400482177734375,-1.348419189453125
1704279020920111000,5.606111083984375,-0.13751220703125,0.8928070068359375,-1.2942657470703125
1704279020930085000,5.616085205078125,-0.1349029541015625,0.8549346923828125,-1.2524261474609375
1704279020940060200,5.62606005859375,-0.121917724609375,0.8291473388671875,-1.2153778076171875
1704279020950034200,5.6360341796875,-0.1087799072265625,0.80596923828125,-1.183319091796875
1704279020960009200,5.64600927734375,-0.0992584228515625,0.7832183837890625,-1.1532745361328125
1704279020969983200,5.655983154296875,-0.091796875,0.7631683349609375,-1.123992919921875
1704279020979958300,5.665958251953125,-0.084625244140625,0.7468109130859375,-1.0955657958984375
1704279020989932300,5.675932373046875,-0.0740966796875,0.725555419921875,-1.0626068115234375
1704279020999907300,5.6859072265625,-0.062713623046875,0.7025909423828125,-1.0270843505859375
1704279021009881300,5.69588134765625,-0.0626220703125,0.68731689453125,-1.000152587890625
1704279021019856100,5.705856201171875,-0.0682830810546875,0.6759796142578125,-0.9786834716796875
1704279021029830100,5.715830078125,-0.0735321044921875,0.664703369140625,-0.9550933837890625
1704279021039805200,5.72580517578125,-0.0831756591796875,0.6501922607421875,-0.9288177490234375
1704279021049779200,5.735779296875,-0.0976715087890625,0.6334228515625,-0.8965911865234375
1704279021059754200,5.745754150390625,-0.11151123046875,0.6150665283203125,-0.8598785400390625
1704279021069728300,5.755728271484375,-0.1208343505859375,0.589752197265625,-0.817779541015625
1704279021079703300,5.765703369140625,-0.123809814453125,0.5645294189453125,-0.7777862548828125
1704279021089677300,5.77567724609375,-0.127532958984375,0.5400543212890625,-0.7388916015625
1704279021099652400,5.78565234375,-0.1299591064453125,0.5151214599609375,-0.7037200927734375
1704279021109626400,5.79562646484375,-0.1266632080078125,0.4912567138671875,-0.6706085205078125
1704279021119601200,5.80560107421875,-0.117218017578125,0.4718475341796875,-0.6424560546875
1704279021129575200,5.8155751953125,-0.1078338623046875,0.4605560302734375,-0.622467041015625
1704279021139550200,5.82555029296875,-0.0967559814453125,0.4586334228515625,-0.611602783203125
1704279021149524200,5.835524169921875,-0.084869384765625,0.461883544921875,-0.60546875
1704279021159499300,5.845499267578125,-0.06951904296875,0.471710205078125,-0.5933837890625
1704279021169473300,5.855473388671875,-0.054962158203125,0.481781005859375,-0.5797576904296875
1704279021179448000,5.865447998046875,-0.043548583984375,0.4949493408203125,-0.5682525634765625
1704279021189422000,5.875422119140625,-0.035614013671875,0.5065460205078125,-0.5566558837890625
1704279021199397400,5.8853974609375,-0.032318115234375,0.5184326171875,-0.5438690185546875
1704279021209371400,5.895371337890625,-0.03131103515625,0.5291595458984375,-0.5274200439453125
1704279021219346200,5.90534619140625,-0.031951904296875,0.5331878662109375,-0.50592041015625
1704279021229320200,5.9153203125,-0.0333251953125,0.5324554443359375,-0.4820098876953125
1704279021239295200,5.925295166015625,-0.035858154296875,0.5281982421875,-0.4569244384765625
1704279021249270300,5.935270263671875,-0.0367431640625,0.5218963623046875,-0.4373779296875
1704279021259244300,5.945244384765625,-0.034759521484375,0.5254974365234375,-0.429534912109375
1704279021269219000,5.955218994140625,-0.0344696044921875,0.53973388671875,-0.439605712890625
1704279021279193000,5.965193115234375,-0.0326080322265625,0.56707763671875,-0.480621337890625
1704279021289168400,5.97516845703125,-0.02728271484375,0.60321044921875,-0.555328369140625
1704279021299142400,5.985142333984375,-0.01531982421875,0.6465301513671875,-0.6402435302734375
1704279021309117400,5.995117431640625,-0.00042724609375,0.686248779296875,-0.710723876953125
1704279021319091200,6.00509130859375,0.0161590576171875,0.7135467529296875,-0.7632598876953125
1704279021329066200,6.015066162109375,0.024169921875,0.718231201171875,-0.7997283935546875
1704279021339040300,6.025040283203125,0.0241851806640625,0.7080535888671875,-0.8056793212890625
1704279021349015300,6.035015380859375,0.0180816650390625,0.6846466064453125,-0.7955780029296875
1704279021358989300,6.0449892578125,0.0033721923828125,0.66015625,-0.7973175048828125
1704279021368964000,6.054964111328125,-0.0246734619140625,0.649169921875,-0.8341217041015625
1704279021378938000,6.064938232421875,-0.0644989013671875,0.64593505859375,-0.912109375
1704279021388913200,6.0749130859375,-0.10052490234375,0.65435791015625,-1.015380859375
1704279021398887200,6.08488720703125,-0.126220703125,0.677978515625,-1.1274566650390625
1704279021408862500,6.094862548828125,-0.132232666015625,0.71002197265625,-1.229522705078125
1704279021418836500,6.10483642578125,-0.1235198974609375,0.742584228515625,-1.3210296630859375
1704279021428811300,6.114811279296875,-0.1029205322265625,0.7683868408203125,-1.3923187255859375
1704279021438785300,6.124785400390625,-0.0618743896484375,0.792694091796875,-1.45623779296875
1704279021448760300,6.13476025390625,-0.0084075927734375,0.808746337890625,-1.52496337890625
1704279021458734300,6.144734375,0.0452117919921875,0.8164215087890625,-1.5974273681640625
1704279021468709000,6.154709228515625,0.0897674560546875,0.8130950927734375,-1.6519927978515625
1704279021478683100,6.16468310546875,0.1226348876953125,0.8022003173828125,-1.6811065673828125
1704279021488658200,6.174658203125,0.1515350341796875,0.784393310546875,-1.688568115234375
1704279021498632200,6.184632080078125,0.1589508056640625,0.7666168212890625,-1.65460205078125
1704279021508607500,6.194607421875,0.182342529296875,0.752410888671875,-1.66229248046875
1704279021518581200,6.204581298828125,0.156829833984375,0.752227783203125,-1.6115570068359375
1704279021528556300,6.214556396484375,0.120758056640625,0.740875244140625,-1.565155029296875
1704279021538530300,6.2245302734375,0.068756103515625,0.7263946533203125,-1.524169921875
1704279021548505300,6.23450537109375,0.014617919921875,0.7196044921875,-1.4768829345703125
1704279021558479400,6.244479248046875,-0.0382537841796875,0.7118988037109375,-1.4403533935546875
1704279021568454100,6.2544541015625,-0.0854949951171875,0.69647216796875,-1.4076690673828125
1704279021578428200,6.26442822265625,-0.1237335205078125,0.679473876953125,-1.37445068359375
1704279021588403200,6.2744033203125,-0.1572265625,0.6591644287109375,-1.344757080078125
1704279021598377200,6.284377197265625,-0.184539794921875,0.6343994140625,-1.3271484375
1704279021608352300,6.294352294921875,-0.20306396484375,0.6099395751953125,-1.3224945068359375
1704279021618326300,6.304326171875,-0.2147979736328125,0.5810394287109375,-1.31768798828125
1704279021628301300,6.31430126953125,-0.2145843505859375,0.552825927734375,-1.314056396484375
1704279021638275300,6.324275390625,-0.2124786376953125,0.5271759033203125,-1.30853271484375
1704279021648250400,6.33425048828125,-0.2123565673828125,0.499847412109375,-1.29461669921875
1704279021658224400,6.344224365234375,-0.2079620361328125,0.4657745361328125,-1.2777862548828125
1704279021668199400,6.354199462890625,-0.197357177734375,0.42913818359375,-1.2607269287109375
1704279021678173200,6.364173095703125,-0.182830810546875,0.3926239013671875,-1.2298126220703125
1704279021688148200,6.374148193359375,-0.1665191650390625,0.3612518310546875,-1.2026519775390625
1704279021698122200,6.384122314453125,-0.1514739990234375,0.334320068359375,-1.180450439453125
1704279021708097300,6.39409716796875,-0.1324310302734375,0.3087158203125,-1.16217041015625
1704279021718072000,6.404072021484375,-0.1142425537109375,0.2814788818359375,-1.151123046875
1704279021728046000,6.414046142578125,-0.1013946533203125,0.2541961669921875,-1.139556884765625
1704279021738021400,6.424021484375,-0.0911407470703125,0.2259063720703125,-1.1279296875
1704279021747995400,6.433995361328125,-0.08038330078125,0.2010040283203125,-1.1178131103515625
1704279021757970400,6.443970458984375,-0.0723724365234375,0.1779327392578125,-1.10333251953125
1704279021767944400,6.4539443359375,-0.069366455078125,0.159637451171875,-1.088592529296875
1704279021777919200,6.463919189453125,-0.072357177734375,0.14837646484375,-1.076873779296875
1704279021787893200,6.473893310546875,-0.08062744140625,0.1473236083984375,-1.0717010498046875
1704279021797868300,6.483868408203125,-0.09417724609375,0.154815673828125,-1.07537841796875
1704279021807842300,6.49384228515625,-0.1042022705078125,0.1708831787109375,-1.09124755859375
1704279021817817000,6.503817138671875,-0.1077423095703125,0.1945953369140625,-1.10687255859375
1704279021827791000,6.513791015625,-0.10260009765625,0.216888427734375,-1.1216888427734375
1704279021837766100,6.52376611328125,-0.0943450927734375,0.2330169677734375,-1.1432952880859375
1704279021847740200,6.533740234375,-0.086334228515625,0.2441558837890625,-1.164398193359375
1704279021857715500,6.543715576171875,-0.0744476318359375,0.2516632080078125,-1.178070068359375
1704279021867689500,6.553689453125,-0.059600830078125,0.2455596923828125,-1.1864166259765625
1704279021877664300,6.563664306640625,-0.04742431640625,0.2310943603515625,-1.201385498046875
1704279021887638300,6.57363818359375,-0.0383758544921875,0.23291015625,-1.238494873046875
1704279021897613300,6.58361328125,-0.0363922119140625,0.2759552001953125,-1.307037353515625
1704279021907587300,6.59358740234375,-0.0487518310546875,0.3500213623046875,-1.38775634765625
1704279021917562400,6.603562255859375,-0.0601806640625,0.424285888671875,-1.4601593017578125
1704279021927536000,6.6135361328125,-0.075439453125,0.4829254150390625,-1.5083465576171875
1704279021937511200,6.62351123046875,-0.0931854248046875,0.5155029296875,-1.514984130859375
1704279021947485200,6.633485107421875,-0.111328125,0.5206146240234375,-1.4772796630859375
1704279021957460200,6.643460205078125,-0.1186676025390625,0.505615234375,-1.4118804931640625
1704279021967434200,6.653434326171875,-0.111968994140625,0.486419677734375,-1.352996826171875
1704279021977409300,6.6634091796875,-0.1009521484375,0.47149658203125,-1.3075714111328125
1704279021987383300,6.67338330078125,-0.0894012451171875,0.4691925048828125,-1.26885986328125
1704279021997358300,6.6833583984375,-0.075714111328125,0.4843597412109375,-1.2513580322265625
1704279022007332400,6.693332275390625,-0.0597381591796875,0.5210723876953125,-1.2659759521484375
1704279022017307400,6.703307373046875,-0.0449371337890625,0.5800628662109375,-1.309783935546875
1704279022027281400,6.713281494140625,-0.0345001220703125,0.65087890625,-1.378021240234375
1704279022037256200,6.723256103515625,-0.0344085693359375,0.7268218994140625,-1.4638671875
1704279022047230200,6.733230224609375,-0.0470733642578125,0.8076324462890625,-1.5408935546875
1704279022057205200,6.743205322265625,-0.0621795654296875,0.8822021484375,-1.5983734130859375
1704279022067179300,6.75317919921875,-0.072845458984375,0.955780029296875,-1.6394805908203125
1704279022077154000,6.763154052734375,-0.0851287841796875,1.0233917236328125,-1.6587371826171875
1704279022087128000,6.773128173828125,-0.0984954833984375,1.067138671875,-1.656951904296875
1704279022097103400,6.783103271484375,-0.11639404296875,1.093292236328125,-1.6415863037109375
1704279022107078400,6.793078369140625,-0.137725830078125,1.10626220703125,-1.6208343505859375
1704279022117052400,6.803052490234375,-0.1508026123046875,1.113800048828125,-1.5924224853515625
1704279022127027200,6.813027099609375,-0.157501220703125,1.1079864501953125,-1.553314208984375
1704279022137001200,6.823001220703125,-0.15521240234375,1.0919036865234375,-1.5034942626953125
1704279022146976300,6.832976318359375,-0.150726318359375,1.0672607421875,-1.44671630859375
1704279022156950300,6.8429501953125,-0.1438751220703125,1.0341339111328125,-1.3906097412109375
1704279022166925300,6.85292529296875,-0.1334228515625,1.0014801025390625,-1.3404693603515625
1704279022176899000,6.862899169921875,-0.1223907470703125,0.9711151123046875,-1.3001556396484375
1704279022186874000,6.8728740234375,-0.1082763671875,0.9454498291015625,-1.2636260986328125
1704279022196848000,6.88284814453125,-0.096954345703125,0.9237213134765625,-1.229827880859375
1704279022206823400,6.892823486328125,-0.087005615234375,0.90350341796875,-1.198974609375
1704279022216797400,6.90279736328125,-0.0831756591796875,0.885498046875,-1.169677734375
1704279022226772200,6.912772216796875,-0.0843505859375,0.8652191162109375,-1.13677978515625
1704279022236746200,6.922746337890625,-0.083343505859375,0.8413848876953125,-1.099578857421875
1704279022246721300,6.93272119140625,-0.0790557861328125,0.8084259033203125,-1.0512237548828125
1704279022256695300,6.9426953125,-0.0829620361328125,0.777374267578125,-1.0132293701171875
1704279022266670300,6.95267041015625,-0.089263916015625,0.7461395263671875,-0.9725494384765625
1704279022276644400,6.962644287109375,-0.090545654296875,0.7225799560546875,-0.9474334716796875
1704279022286620000,6.972619873046875,-0.098419189453125,0.710357666015625,-0.9237213134765625
1704279022296594000,6.982593994140625,-0.1076812744140625,0.7008209228515625,-0.8894195556640625
1704279022306569000,6.99256884765625,-0.1137237548828125,0.6798095703125,-0.846160888671875
1704279022316543000,7.00254296875,-0.1142120361328125,0.6500396728515625,-0.797027587890625
1704279022326518000,7.01251806640625,-0.1139373779296875,0.616912841796875,-0.747100830078125
1704279022336492000,7.022491943359375,-0.1109161376953125,0.5836181640625,-0.7000579833984375
1704279022346467000,7.032467041015625,-0.104705810546875,0.554473876953125,-0.6591644287109375
1704279022356441000,7.042441162109375,-0.0925445556640625,0.5323333740234375,-0.627227783203125
1704279022366416000,7.052415771484375,-0.0810699462890625,0.518646240234375,-0.6045379638671875
1704279022376390000,7.062389892578125,-0.0712127685546875,0.5161895751953125,-0.588775634765625
1704279022386365000,7.072364990234375,-0.05975341796875,0.517608642578125,-0.577911376953125
1704279022396339000,7.0823388671875,-0.0517425537109375,0.5199127197265625,-0.56890869140625
1704279022406314000,7.09231396484375,-0.04547119140625,0.5258636474609375,-0.5601806640625
1704279022416289000,7.1022890625,-0.039306640625,0.5380706787109375,-0.5507049560546875
1704279022426263000,7.112262939453125,-0.0352935791015625,0.5543212890625,-0.5402069091796875
1704279022436238000,7.122238037109375,-0.030975341796875,0.5727996826171875,-0.519866943359375
1704279022446212000,7.132212158203125,-0.028594970703125,0.581085205078125,-0.4876708984375
1704279022456187100,7.142187255859375,-0.028045654296875,0.57440185546875,-0.44110107421875
1704279022466161000,7.152160888671875,-0.024810791015625,0.5554351806640625,-0.3865814208984375
1704279022476136000,7.162135986328125,-0.0194549560546875,0.5366363525390625,-0.3376617431640625
1704279022486110000,7.17210986328125,-0.01116943359375,0.530120849609375,-0.300445556640625
1704279022496085000,7.1820849609375,-0.0067596435546875,0.5347137451171875,-0.2815399169921875
1704279022506059000,7.19205908203125,-0.0068511962890625,0.555633544921875,-0.2936248779296875
1704279022516033800,7.20203369140625,-0.0047454833984375,0.59765625,-0.3469085693359375
1704279022526007800,7.2120078125,0.0028228759765625,0.649566650390625,-0.4209136962890625
1704279022535983000,7.221983154296875,0.0157928466796875,0.6985931396484375,-0.4982147216796875
1704279022545957000,7.23195703125,0.03363037109375,0.726806640625,-0.576019287109375
1704279022555932200,7.24193212890625,0.0522308349609375,0.72698974609375,-0.6423797607421875
1704279022565906000,7.251906005859375,0.0637359619140625,0.7134552001953125,-0.69232177734375
1704279022575881000,7.261880859375,0.0638580322265625,0.707489013671875,-0.738250732421875
1704279022585855000,7.27185498046875,0.0507354736328125,0.6992645263671875,-0.7822265625
1704279022595830000,7.281830078125,0.0301361083984375,0.6887359619140625,-0.8382568359375
1704279022605804000,7.291803955078125,-0.0041046142578125,0.68206787109375,-0.9088897705078125
1704279022615778800,7.30177880859375,-0.0465087890625,0.6832122802734375,-0.9901580810546875
1704279022625752800,7.3117529296875,-0.0798492431640625,0.6909332275390625,-1.0832061767578125
1704279022635728000,7.321727783203125,-0.098114013671875,0.7109832763671875,-1.18310546875
1704279022645702000,7.331701904296875,-0.1063232421875,0.74517822265625,-1.286529541015625
1704279022655677200,7.34167724609375,-0.0977020263671875,0.7808837890625,-1.3828582763671875
1704279022665651200,7.351651123046875,-0.0672149658203125,0.8152313232421875,-1.4687652587890625
1704279022675626000,7.3616259765625,-0.0207366943359375,0.845184326171875,-1.548309326171875
1704279022685600000,7.37160009765625,0.0308837890625,0.870086669921875,-1.613189697265625
1704279022695575000,7.381574951171875,0.0804901123046875,0.884307861328125,-1.66156005859375
1704279022705549000,7.391549072265625,0.1281585693359375,0.883392333984375,-1.687408447265625
1704279022715523800,7.40152392578125,0.161285400390625,0.870758056640625,-1.69207763671875
1704279022725499000,7.411498779296875,0.170257568359375,0.858612060546875,-1.6846160888671875
1704279022735473000,7.421472900390625,0.154449462890625,0.8504791259765625,-1.6739654541015625
1704279022745448000,7.431447998046875,0.1160888671875,0.8275299072265625,-1.6510009765625
1704279022755422000,7.441421875,0.0661773681640625,0.798492431640625,-1.6217193603515625
1704279022765397000,7.45139697265625,0.00372314453125,0.7724609375,-1.5876617431640625
1704279022775371000,7.46137109375,-0.057861328125,0.745025634765625,-1.5421142578125
1704279022785346000,7.471345947265625,-0.1130828857421875,0.716461181640625,-1.496826171875
1704279022795320000,7.481320068359375,-0.15863037109375,0.681976318359375,-1.454681396484375
1704279022805295000,7.491295166015625,-0.193389892578125,0.65216064453125,-1.4119415283203125
1704279022815269000,7.50126904296875,-0.2190093994140625,0.6221160888671875,-1.37384033203125
1704279022825244000,7.511243896484375,-0.2392730712890625,0.5887451171875,-1.334381103515625
1704279022835218000,7.521218017578125,-0.2393798828125,0.5592498779296875,-1.3060760498046875
1704279022845193000,7.53119287109375,-0.2269439697265625,0.5366668701171875,-1.286590576171875
1704279022855167000,7.5411669921875,-0.2017974853515625,0.51611328125,-1.2737884521484375
1704279022865141800,7.551141845703125,-0.1690826416015625,0.4974822998046875,-1.2685394287109375
1704279022875115800,7.56111572265625,-0.1415252685546875,0.482879638671875,-1.2593994140625
1704279022885091000,7.571091064453125,-0.1107940673828125,0.4674530029296875,-1.2502288818359375
1704279022895065000,7.581065185546875,-0.0854339599609375,0.4513702392578125,-1.23309326171875
1704279022905040100,7.5910400390625,-0.06768798828125,0.4310455322265625,-1.210662841796875
1704279022915014100,7.60101416015625,-0.0541534423828125,0.407501220703125,-1.1890869140625
1704279022924989000,7.610989013671875,-0.041656494140625,0.3812713623046875,-1.1667633056640625
1704279022934963000,7.620962890625,-0.0337371826171875,0.355743408203125,-1.145263671875
1704279022944938000,7.63093798828125,-0.0291595458984375,0.334320068359375,-1.12640380859375
1704279022954912000,7.640912109375,-0.0287017822265625,0.3136749267578125,-1.10382080078125
1704279022964886800,7.65088671875,-0.031646728515625,0.2910919189453125,-1.0757598876953125
1704279022974861800,7.66086181640625,-0.0368194580078125,0.265777587890625,-1.0474700927734375
1704279022984835800,7.6708359375,-0.0414276123046875,0.241455078125,-1.021087646484375
1704279022994811100,7.68081103515625,-0.0489501953125,0.2186737060546875,-0.9999542236328125
1704279023004785200,7.69078515625,-0.055511474609375,0.2016448974609375,-0.987762451171875
1704279023014760000,7.700760009765625,-0.0584716796875,0.193359375,-0.987274169921875
1704279023024734000,7.71073388671875,-0.0601043701171875,0.194915771484375,-0.9983673095703125
1704279023034709000,7.720708984375,-0.05792236328125,0.2052764892578125,-1.0164947509765625
1704279023044683000,7.73068310546875,-0.0530242919921875,0.22442626953125,-1.0364990234375
1704279023054658000,7.740657958984375,-0.041900634765625,0.2467041015625,-1.058258056640625
1704279023064632000,7.750632080078125,-0.0301666259765625,0.2654876708984375,-1.0833892822265625
1704279023074606800,7.76060693359375,-0.0183258056640625,0.2813568115234375,-1.10784912109375
1704279023084580900,7.770580810546875,-0.00494384765625,0.298248291015625,-1.1299285888671875
1704279023094556200,7.78055615234375,0.00946044921875,0.308074951171875,-1.15692138671875
1704279023104530200,7.7905302734375,0.0128936767578125,0.3122711181640625,-1.1950531005859375
1704279023114505000,7.8005048828125,-0.001129150390625,0.32080078125,-1.2445831298828125
1704279023124479000,7.81047900390625,-0.00830078125,0.347412109375,-1.3037109375
1704279023134454000,7.8204541015625,-0.01953125,0.3956756591796875,-1.3683013916015625
1704279023144428000,7.830427978515625,-0.0392913818359375,0.4454345703125,-1.4200286865234375
1704279023154403000,7.840403076171875,-0.0647430419921875,0.4811248779296875,-1.444244384765625
1704279023164377000,7.850377197265625,-0.0951690673828125,0.50335693359375,-1.4438323974609375
1704279023174352000,7.860351806640625,-0.1255950927734375,0.51385498046875,-1.417388916015625
1704279023184326000,7.870325927734375,-0.148468017578125,0.505950927734375,-1.3644256591796875
1704279023194301000,7.880301025390625,-0.1558685302734375,0.4875030517578125,-1.2936248779296875
1704279023204275000,7.89027490234375,-0.14874267578125,0.4736175537109375,-1.2311248779296875
1704279023214250000,7.90025,-0.1314697265625,0.4795684814453125,-1.20623779296875
1704279023224225000,7.91022509765625,-0.1112518310546875,0.498199462890625,-1.208953857421875
1704279023234199000,7.920198974609375,-0.0922088623046875,0.5334014892578125,-1.2308349609375
1704279023244174000,7.930174072265625,-0.074859619140625,0.5770263671875,-1.264434814453125
1704279023254148000,7.940148193359375,-0.0550994873046875,0.624298095703125,-1.2968902587890625
1704279023264123000,7.950122802734375,-0.036376953125,0.6701202392578125,-1.324493408203125
1704279023274097000,7.960096923828125,-0.0257568359375,0.7136688232421875,-1.348297119140625
1704279023284072000,7.970072021484375,-0.017242431640625,0.7559967041015625,-1.3660888671875
1704279023294045700,7.980045654296875,-0.01312255859375,0.796875,-1.379119873046875
1704279023304020700,7.990020751953125,-0.0139007568359375,0.8368072509765625,-1.390106201171875
1704279023313994800,7.999994873046875,-0.0193328857421875,0.875640869140625,-1.40478515625
1704279023323969500,8.009969482421875,-0.027191162109375,0.91400146484375,-1.413299560546875
1704279023333943600,8.019943603515625,-0.0314788818359375,0.939453125,-1.420135498046875
1704279023343918600,8.029918701171875,-0.037445068359375,0.9581146240234375,-1.4253997802734375
1704279023353892600,8.039892578125,-0.0522003173828125,0.9728240966796875,-1.42535400390625
1704279023363867600,8.04986767578125,-0.0575103759765625,0.98193359375,-1.4171142578125
1704279023373841400,8.05984130859375,-0.0543365478515625,0.9918670654296875,-1.4001617431640625
1704279023383816700,8.069816650390624,-0.0486297607421875,0.9922027587890625,-1.3716583251953125
1704279023393790700,8.079790771484374,-0.044525146484375,0.9767303466796875,-1.327911376953125
1704279023403765800,8.089765869140624,-0.0452880859375,0.954681396484375,-1.2878265380859375
1704279023413739800,8.09973974609375,-0.0557098388671875,0.9317626953125,-1.256439208984375
1704279023423714600,8.109714599609376,-0.0696563720703125,0.9125213623046875,-1.23309326171875
1704279023433688600,8.1196884765625,-0.0870361328125,0.8983612060546875,-1.21539306640625
1704279023443663600,8.12966357421875,-0.10162353515625,0.8906097412109375,-1.194000244140625
1704279023453638700,8.139638671875,-0.1112518310546875,0.88092041015625,-1.1646881103515625
1704279023463612700,8.14961279296875,-0.117919921875,0.8688201904296875,-1.1270599365234375
1704279023473587500,8.15958740234375,-0.11932373046875,0.8540802001953125,-1.08880615234375
1704279023483561500,8.1695615234375,-0.114837646484375,0.836669921875,-1.0470123291015625
1704279023493536800,8.179536865234375,-0.1085357666015625,0.81689453125,-1.005706787109375
1704279023503510800,8.1895107421875,-0.109222412109375,0.7958984375,-0.9646453857421875
1704279023513485600,8.199485595703125,-0.1059722900390625,0.76593017578125,-0.9235076904296875
1704279023523459600,8.20945947265625,-0.103759765625,0.7339630126953125,-0.880950927734375
1704279023533434600,8.2194345703125,-0.102813720703125,0.7016754150390625,-0.8394622802734375
1704279023543408600,8.22940869140625,-0.1019287109375,0.6671142578125,-0.8017730712890625
1704279023553383700,8.2393837890625,-0.1037750244140625,0.631195068359375,-0.766815185546875
1704279023563357700,8.249357666015625,-0.10565185546875,0.5958251953125,-0.731048583984375
1704279023573332500,8.25933251953125,-0.10650634765625,0.5637969970703125,-0.6971435546875
1704279023583306500,8.269306396484374,-0.0970306396484375,0.5406494140625,-0.66741943359375
1704279023593281500,8.279281494140625,-0.0844879150390625,0.5281829833984375,-0.641754150390625
1704279023603255600,8.289255615234374,-0.07440185546875,0.5253448486328125,-0.618133544921875
1704279023613230600,8.299230712890624,-0.0666046142578125,0.528564453125,-0.594451904296875
1704279023623204600,8.30920458984375,-0.0611419677734375,0.53118896484375,-0.5756072998046875
1704279023633179600,8.3191796875,-0.0603485107421875,0.5351715087890625,-0.5637054443359375
1704279023643153700,8.329153564453126,-0.05987548828125,0.549224853515625,-0.5561981201171875
1704279023653128700,8.339128662109376,-0.05401611328125,0.5738067626953125,-0.5486602783203125
1704279023663102700,8.349102783203126,-0.0456695556640625,0.600311279296875,-0.535980224609375
1704279023673077500,8.359077392578126,-0.0387420654296875,0.618743896484375,-0.517578125
1704279023683052500,8.369052490234376,-0.0344390869140625,0.622528076171875,-0.4855194091796875
1704279023693026600,8.379026611328126,-0.02777099609375,0.6082305908203125,-0.441162109375
1704279023703001600,8.389001708984376,-0.01519775390625,0.58319091796875,-0.3944091796875
1704279023712975600,8.3989755859375,-0.0011444091796875,0.5618133544921875,-0.35369873046875
1704279023722950700,8.40895068359375,0.00244140625,0.5494537353515625,-0.3334808349609375
1704279023732924700,8.418924560546875,0.001922607421875,0.5463409423828125,-0.3348236083984375
1704279023742899700,8.428899658203125,-0.0012054443359375,0.5657958984375,-0.3740386962890625
1704279023752873700,8.438873779296875,0.000885009765625,0.605743408203125,-0.446441650390625
1704279023762848500,8.4488486328125,0.0089569091796875,0.643768310546875,-0.51556396484375
1704279023772822500,8.458822509765625,0.0179443359375,0.6743927001953125,-0.567291259765625
1704279023782797600,8.468797607421875,0.024444580078125,0.69708251953125,-0.610137939453125
1704279023792771600,8.478771484375,0.0267333984375,0.7105712890625,-0.6415252685546875
1704279023802746600,8.48874658203125,0.02410888671875,0.7137603759765625,-0.6700897216796875
1704279023812720600,8.498720703125,0.013824462890625,0.70294189453125,-0.7058868408203125
1704279023822695400,8.5086953125,0.0023651123046875,0.693939208984375,-0.744842529296875
1704279023832669400,8.51866943359375,-0.018341064453125,0.6897735595703125,-0.7893524169921875
1704279023842644700,8.528644775390624,-0.043182373046875,0.686279296875,-0.8430023193359375
1704279023852618800,8.53861865234375,-0.062408447265625,0.684539794921875,-0.9079132080078125
1704279023862593500,8.548593505859374,-0.0757293701171875,0.6975250244140625,-0.9860992431640625
1704279023872568600,8.558568603515624,-0.0809326171875,0.7183380126953125,-1.070098876953125
1704279023882542600,8.56854248046875,-0.075653076171875,0.749755859375,-1.164398193359375
1704279023892517600,8.578517578125,-0.058746337890625,0.784423828125,-1.26141357421875
1704279023902491600,8.58849169921875,-0.0294647216796875,0.822906494140625,-1.3570098876953125
1704279023912466400,8.598466552734376,0.00677490234375,0.8705902099609375,-1.4536285400390625
1704279023922440400,8.6084404296875,0.04779052734375,0.912811279296875,-1.531036376953125
1704279023932415500,8.61841552734375,0.089569091796875,0.9369964599609375,-1.583251953125
1704279023942389500,8.628389404296875,0.123687744140625,0.9467010498046875,-1.6140289306640625
1704279023952364800,8.63836474609375,0.14154052734375,0.94647216796875,-1.63226318359375
1704279023962338600,8.648338623046875,0.138885498046875,0.9484405517578125,-1.63427734375
1704279023972313600,8.658313720703125,0.1181182861328125,0.9532470703125,-1.617523193359375
1704279023982287600,8.66828759765625,0.079620361328125,0.948944091796875,-1.5905914306640625
1704279023992262700,8.6782626953125,0.03497314453125,0.9432373046875,-1.57208251953125
1704279024002236700,8.688236572265625,-0.032806396484375,0.92578125,-1.516143798828125
1704279024012211500,8.69821142578125,-0.096221923828125,0.8879241943359375,-1.465911865234375
1704279024022185500,8.708185546875,-0.1608428955078125,0.843109130859375,-1.4083709716796875
1704279024032160500,8.718160400390625,-0.2205657958984375,0.7940826416015625,-1.352081298828125
1704279024042134500,8.728134521484375,-0.2642669677734375,0.7383575439453125,-1.296417236328125
1704279024052109800,8.73810986328125,-0.2861175537109375,0.6786956787109375,-1.2524566650390625
1704279024062083800,8.748083740234375,-0.287567138671875,0.6301727294921875,-1.2317962646484375
1704279024072058600,8.75805859375,-0.2689361572265625,0.5959320068359375,-1.2303924560546875
1704279024082033700,8.76803369140625,-0.2330780029296875,0.5683135986328125,-1.237274169921875
1704279024092007700,8.778007568359374,-0.1842803955078125,0.542266845703125,-1.2424774169921875
1704279024101982700,8.787982666015624,-0.137176513671875,0.517181396484375,-1.2384033203125
1704279024111956500,8.79795654296875,-0.104156494140625,0.4968414306640625,-1.22412109375
1704279024121931500,8.807931640625,-0.07568359375,0.477783203125,-1.2183837890625
1704279024131905500,8.817905517578126,-0.0533599853515625,0.462738037109375,-1.2201995849609375
1704279024141880600,8.827880615234376,-0.0336456298828125,0.4475555419921875,-1.218231201171875
1704279024151854600,8.8378544921875,-0.0190277099609375,0.4319000244140625,-1.21197509765625
1704279024161829600,8.84782958984375,-0.00762939453125,0.412139892578125,-1.2003631591796875
1704279024171803600,8.8578037109375,0.0052337646484375,0.386566162109375,-1.183685302734375
1704279024181778700,8.86777880859375,0.01190185546875,0.36419677734375,-1.158355712890625
1704279024191752700,8.877752685546875,0.01251220703125,0.340240478515625,-1.1244354248046875
1704279024201727700,8.887727783203125,0.0096588134765625,0.3138275146484375,-1.087493896484375
1704279024211701500,8.897701416015625,0.0032806396484375,0.2930908203125,-1.0568695068359375
1704279024221676500,8.907676513671875,-0.0149993896484375,0.276702880859375,-1.0332489013671875
1704279024231650600,8.917650634765625,-0.03656005859375,0.2608489990234375,-1.018524169921875
1704279024241625600,8.92762548828125,-0.05792236328125,0.2459259033203125,-1.009521484375
1704279024251599600,8.937599609375,-0.073272705078125,0.2324676513671875,-1.0029144287109375
1704279024261574400,8.947574462890625,-0.08135986328125,0.2246246337890625,-1.0081634521484375
1704279024271549700,8.9575498046875,-0.086334228515625,0.2206268310546875,-1.0270233154296875
1704279024281523700,8.967523681640625,-0.0889129638671875,0.226806640625,-1.057525634765625
1704279024291498000,8.977498046875,-0.083587646484375,0.23577880859375,-1.0868377685546875
1704279024301472000,8.987471923828124,-0.0672454833984375,0.23907470703125,-1.1042022705078125
1704279024311446800,8.99744677734375,-0.0465240478515625,0.247711181640625,-1.1177978515625
1704279024321420800,9.0074208984375,-0.0228729248046875,0.2637939453125,-1.13134765625
1704279024331395800,9.017395751953124,-0.0010833740234375,0.2814788818359375,-1.1434478759765625
1704279024341369900,9.027369873046876,0.0178375244140625,0.2974853515625,-1.155670166015625
1704279024351345200,9.03734521484375,0.0340118408203125,0.3199615478515625,-1.1756134033203125
1704279024361319200,9.047319091796876,0.03826904296875,0.3611297607421875,-1.2159423828125
1704279024371294000,9.0572939453125,0.025146484375,0.4281768798828125,-1.2697296142578125
1704279024381268000,9.06726806640625,-0.0013427734375,0.4969635009765625,-1.314361572265625
1704279024391243000,9.077242919921876,-0.030517578125,0.552398681640625,-1.3437652587890625
1704279024401217000,9.087217041015625,-0.0534515380859375,0.60162353515625,-1.3550262451171875
1704279024411192000,9.097192138671875,-0.073638916015625,0.6556243896484375,-1.362274169921875
1704279024421165800,9.107165771484375,-0.1004638671875,0.6920166015625,-1.34197998046875
1704279024431140900,9.117140869140625,-0.1321563720703125,0.69232177734375,-1.2914886474609375
1704279024441115000,9.127114990234375,-0.1616058349609375,0.66510009765625,-1.2188720703125
1704279024451090000,9.13708984375,-0.1818389892578125,0.6326904296875,-1.14691162109375
1704279024461065000,9.14706494140625,-0.185150146484375,0.615570068359375,-1.0923309326171875
1704279024471039000,9.1570390625,-0.1828155517578125,0.6143798828125,-1.05792236328125
1704279024481014000,9.167013916015625,-0.1735992431640625,0.6274261474609375,-1.0590667724609375
1704279024490988000,9.176988037109375,-0.16400146484375,0.6528472900390625,-1.09356689453125
1704279024500963000,9.186963134765625,-0.16510009765625,0.6914520263671875,-1.1477203369140625
1704279024510937000,9.19693701171875,-0.162445068359375,0.73370361328125,-1.2008209228515625
1704279024520912000,9.206911865234375,-0.152862548828125,0.767822265625,-1.247467041015625
1704279024530886000,9.216885986328125,-0.14251708984375,0.8014068603515625,-1.2891082763671875
1704279024540861000,9.22686083984375,-0.1392059326171875,0.8385772705078125,-1.33282470703125
1704279024550835000,9.2368349609375,-0.1494140625,0.8690338134765625,-1.381927490234375
1704279024560810000,9.24681005859375,-0.1698150634765625,0.9009552001953125,-1.4345703125
1704279024570784000,9.256783935546874,-0.1939697265625,0.9358978271484375,-1.481292724609375
1704279024580759000,9.266759033203124,-0.21905517578125,0.9523468017578125,-1.4972991943359375
1704279024590733000,9.276733154296876,-0.2457733154296875,0.9767303466796875,-1.5069580078125
1704279024600708000,9.2867080078125,-0.2688140869140625,0.9807281494140625,-1.5113525390625
1704279024610682000,9.29668212890625,-0.29217529296875,0.949066162109375,-1.497222900390625
1704279024620657000,9.306656982421876,-0.309173583984375,0.9197998046875,-1.4719696044921875
1704279024630631000,9.316630859375,-0.3114776611328125,0.908538818359375,-1.454986572265625
1704279024640606000,9.32660595703125,-0.295989990234375,0.89752197265625,-1.4372406005859375
1704279024650581000,9.3365810546875,-0.2718353271484375,0.8778076171875,-1.4129486083984375
1704279024660555000,9.346554931640625,-0.2399749755859375,0.8607025146484375,-1.390167236328125
1704279024670530000,9.356530029296875,-0.209564208984375,0.8492279052734375,-1.36773681640625
1704279024680504000,9.366504150390625,-0.181304931640625,0.841339111328125,-1.3486785888671875
1704279024690479000,9.37647900390625,-0.157623291015625,0.8369903564453125,-1.3256683349609375
1704279024700453000,9.386453125,-0.141632080078125,0.8337860107421875,-1.289093017578125
1704279024710428000,9.396427978515625,-0.1197967529296875,0.822113037109375,-1.2453765869140625
1704279024720402000,9.40640185546875,-0.0951995849609375,0.806793212890625,-1.189208984375
1704279024730377000,9.416376953125,-0.078704833984375,0.7968902587890625,-1.1330413818359375
1704279024740351000,9.42635107421875,-0.06964111328125,0.7786102294921875,-1.0712127685546875
1704279024750326000,9.436325927734375,-0.061492919921875,0.7506866455078125,-1.004974365234375
1704279024760300000,9.446300048828125,-0.059814453125,0.7232666015625,-0.9406890869140625
1704279024770274800,9.45627490234375,-0.063934326171875,0.6976776123046875,-0.8852691650390625
1704279024780248800,9.466248779296874,-0.068603515625,0.670928955078125,-0.8337249755859375
1704279024790224100,9.47622412109375,-0.074798583984375,0.6470947265625,-0.7880859375
1704279024800198100,9.4861982421875,-0.0812225341796875,0.6177825927734375,-0.7289581298828125
1704279024810173000,9.4961728515625,-0.083831787109375,0.58160400390625,-0.67138671875
1704279024820148000,9.50614794921875,-0.0865936279296875,0.5501556396484375,-0.6220703125
1704279024830122000,9.5161220703125,-0.0884552001953125,0.5288543701171875,-0.58251953125
1704279024840097000,9.526096923828124,-0.08172607421875,0.51666259765625,-0.547607421875
1704279024850071000,9.536071044921876,-0.06927490234375,0.5135650634765625,-0.51983642578125
1704279024860045800,9.5460458984375,-0.0556182861328125,0.5135498046875,-0.4962921142578125
1704279024870019800,9.556019775390626,-0.03515625,0.5195159912109375,-0.4739227294921875
1704279024879995000,9.565994873046876,-0.0162811279296875,0.528106689453125,-0.45245361328125
1704279024889969000,9.575968994140625,-0.0007171630859375,0.540191650390625,-0.4356536865234375
1704279024899944200,9.585944091796875,0.0066375732421875,0.5517578125,-0.420196533203125
1704279024909918000,9.59591796875,0.0057373046875,0.5577545166015625,-0.4009857177734375
1704279024919893000,9.60589306640625,0.00408935546875,0.5554656982421875,-0.37713623046875
1704279024929867000,9.615866943359375,0.00079345703125,0.5437469482421875,-0.3455657958984375
1704279024939842000,9.625842041015625,0.000274658203125,0.522308349609375,-0.315185546875
1704279024949816000,9.635816162109375,-0.003387451171875,0.503448486328125,-0.294036865234375
1704279024959790800,9.645790771484375,-0.0064544677734375,0.4897308349609375,-0.2797393798828125
1704279024969764900,9.655764892578125,-0.0048065185546875,0.4844207763671875,-0.2794036865234375
1704279024979740000,9.665739990234375,0.00341796875,0.4918060302734375,-0.309600830078125
1704279024989715000,9.67571484375,0.0163421630859375,0.520477294921875,-0.371063232421875
1704279024999689000,9.68568896484375,0.0359649658203125,0.5673065185546875,-0.4500274658203125
1704279025009664000,9.6956640625,0.0631866455078125,0.6239013671875,-0.537353515625
1704279025019638000,9.705637939453124,0.090789794921875,0.6874847412109375,-0.6156768798828125
1704279025029613000,9.715613037109375,0.1087493896484375,0.7350616455078125,-0.6927032470703125
1704279025039587000,9.725587158203124,0.1166229248046875,0.7672576904296875,-0.7807769775390625
1704279025049561900,9.735561767578124,0.1100006103515625,0.7886199951171875,-0.854949951171875
1704279025059536000,9.745535888671874,0.085113525390625,0.79571533203125,-0.91705322265625
1704279025069511000,9.755510986328124,0.046539306640625,0.788116455078125,-0.9695892333984375
1704279025079485000,9.76548486328125,0.0031585693359375,0.771209716796875,-1.013336181640625
1704279025089460000,9.7754599609375,-0.043121337890625,0.75286865234375,-1.0561981201171875
1704279025099434000,9.78543408203125,-0.0812835693359375,0.7311859130859375,-1.09613037109375
1704279025109409000,9.795408935546876,-0.105621337890625,0.714324951171875,-1.1325225830078125
1704279025119383000,9.805383056640625,-0.1152801513671875,0.709228515625,-1.17926025390625
1704279025129358000,9.815358154296876,-0.1108551025390625,0.725311279296875,-1.2380218505859375
1704279025139333000,9.8253330078125,-0.0905914306640625,0.765472412109375,-1.298858642578125
1704279025149307100,9.83530712890625,-0.057037353515625,0.8120269775390625,-1.35491943359375
1704279025159282000,9.845281982421875,-0.0156402587890625,0.8525390625,-1.4018096923828125
1704279025169256000,9.855255859375,0.0218963623046875,0.8917388916015625,-1.4430999755859375
1704279025179231000,9.86523095703125,0.04498291015625,0.9333953857421875,-1.484039306640625
1704279025189205000,9.875205078125,0.051605224609375,0.9629058837890625,-1.5111236572265625
1704279025199179800,9.8851796875,0.047698974609375,0.96929931640625,-1.52142333984375
1704279025209153800,9.89515380859375,0.03466796875,0.962982177734375,-1.52154541015625
1704279025219129000,9.905129150390625,0.0140838623046875,0.95166015625,-1.5211944580078125
1704279025229103000,9.91510302734375,-0.012481689453125,0.93701171875,-1.5106353759765625
1704279025239078100,9.925078125,-0.0457611083984375,0.919403076171875,-1.489105224609375
1704279025249052200,9.93505224609375,-0.0823822021484375,0.894195556640625,-1.4581298828125
1704279025259027000,9.94502685546875,-0.120697021484375,0.862213134765625,-1.4252777099609375
1704279025269001000,9.9550009765625,-0.155670166015625,0.8328399658203125,-1.390716552734375
1704279025278976000,9.96497607421875,-0.1881103515625,0.806854248046875,-1.3607177734375
1704279025288950300,9.9749501953125,-0.2156982421875,0.776947021484375,-1.3337554931640625
1704279025298925000,9.984925048828124,-0.2389068603515625,0.739715576171875,-1.307525634765625
1704279025308900400,9.994900390625,-0.2570648193359375,0.7001800537109375,-1.2851409912109375
1704279025318874400,10.004874267578124,-0.2669677734375,0.6638336181640625,-1.271240234375
1704279025328849400,10.014849365234374,-0.2667694091796875,0.632843017578125,-1.2596435546875
1704279025338823400,10.024823486328126,-0.2571868896484375,0.599578857421875,-1.2455291748046875
1704279025348798200,10.034798095703126,-0.2341461181640625,0.561859130859375,-1.2419586181640625
1704279025358772200,10.044772216796876,-0.2086944580078125,0.530731201171875,-1.241180419921875
1704279025368747300,10.054747314453126,-0.17767333984375,0.5133819580078125,-1.243072509765625
1704279025378721300,10.06472119140625,-0.152191162109375,0.4968414306640625,-1.22906494140625
1704279025388696300,10.0746962890625,-0.12646484375,0.4716949462890625,-1.2032928466796875
1704279025398670000,10.084670166015625,-0.0992431640625,0.440460205078125,-1.1725921630859375
1704279025408645000,10.09464501953125,-0.07525634765625,0.41156005859375,-1.1439056396484375
1704279025418619100,10.104619140625,-0.05926513671875,0.3847198486328125,-1.1199951171875
1704279025428594400,10.114594482421875,-0.0448150634765625,0.3571624755859375,-1.0992889404296875
1704279025438568400,10.124568359375,-0.0305633544921875,0.33282470703125,-1.079376220703125
1704279025448543200,10.134543212890625,-0.017669677734375,0.306884765625,-1.05657958984375
1704279025458517200,10.144517333984375,-0.012237548828125,0.2813720703125,-1.0311431884765625
1704279025468492300,10.1544921875,-0.0082855224609375,0.255462646484375,-1.00927734375
1704279025478467300,10.16446728515625,-0.009765625,0.2374114990234375,-0.99237060546875
1704279025488441300,10.17444140625,-0.0179443359375,0.230743408203125,-0.9785003662109375
1704279025498416000,10.184416015625,-0.0277862548828125,0.2276611328125,-0.9643402099609375
1704279025508390100,10.19439013671875,-0.0337677001953125,0.232269287109375,-0.9564971923828125
1704279025518365400,10.204365478515625,-0.0384368896484375,0.2496337890625,-0.9587554931640625
1704279025528339500,10.21433935546875,-0.0407257080078125,0.2810821533203125,-0.9736328125
1704279025538314200,10.224314208984374,-0.042205810546875,0.31884765625,-1.00347900390625
1704279025548288300,10.234288330078124,-0.04241943359375,0.3567352294921875,-1.040496826171875
1704279025558263300,10.24426318359375,-0.04058837890625,0.392913818359375,-1.0787353515625
1704279025568237300,10.2542373046875,-0.0361785888671875,0.425445556640625,-1.1116790771484375
1704279025578212400,10.26421240234375,-0.033355712890625,0.4472503662109375,-1.1384124755859375
1704279025588186400,10.274186279296876,-0.034271240234375,0.4516143798828125,-1.1566619873046875
1704279025598161200,10.2841611328125,-0.041595458984375,0.4349517822265625,-1.160888671875
1704279025608136200,10.29413623046875,-0.0545501708984375,0.413970947265625,-1.152740478515625
1704279025618110200,10.304110107421875,-0.0702056884765625,0.413330078125,-1.1557769775390625
1704279025628085200,10.314085205078126,-0.080230712890625,0.4543914794921875,-1.204833984375
1704279025638059300,10.324059326171875,-0.093963623046875,0.535980224609375,-1.27935791015625
1704279025648034300,10.334034423828125,-0.109375,0.6187591552734375,-1.3357086181640625
1704279025658008300,10.34400830078125,-0.1242828369140625,0.678375244140625,-1.3519287109375
1704279025667983400,10.3539833984375,-0.13092041015625,0.7238311767578125,-1.3506317138671875
1704279025677957400,10.363957275390625,-0.1263275146484375,0.7593841552734375,-1.3349151611328125
1704279025687932200,10.37393212890625,-0.1151275634765625,0.7768096923828125,-1.307952880859375
1704279025697906200,10.38390625,-0.107666015625,0.770599365234375,-1.2693939208984375
1704279025707881200,10.393881103515625,-0.1000213623046875,0.743988037109375,-1.22119140625
1704279025717855200,10.403855224609375,-0.0908355712890625,0.7049560546875,-1.17333984375
1704279025727830300,10.413830322265625,-0.0776519775390625,0.674713134765625,-1.1416473388671875
1704279025737804300,10.42380419921875,-0.057220458984375,0.6680145263671875,-1.142059326171875
1704279025747779300,10.433779296875,-0.0332489013671875,0.6888275146484375,-1.1716766357421875
1704279025757754400,10.44375439453125,-0.0166015625,0.7310028076171875,-1.21978759765625
1704279025767728400,10.453728271484374,-0.009857177734375,0.781219482421875,-1.2732391357421875
1704279025777703200,10.463703125,-0.0003204345703125,0.8462982177734375,-1.3300933837890625
1704279025787677200,10.47367724609375,0.0055084228515625,0.9194793701171875,-1.376953125
1704279025797652200,10.48365234375,0.000244140625,0.9716339111328125,-1.4001007080078125
1704279025807626200,10.493626220703124,-0.014495849609375,1.0322113037109375,-1.4227294921875
1704279025817601300,10.503601318359374,-0.0308837890625,1.088653564453125,-1.443023681640625
1704279025827575300,10.5135751953125,-0.046722412109375,1.14044189453125,-1.4507598876953125
1704279025837550000,10.523550048828126,-0.056427001953125,1.180908203125,-1.4365081787109375
1704279025847524000,10.533524169921876,-0.0525970458984375,1.191497802734375,-1.38421630859375
1704279025857499400,10.54349951171875,-0.054931640625,1.1706695556640625,-1.3247222900390625
1704279025867473400,10.553473388671875,-0.0594024658203125,1.1273956298828125,-1.261199951171875
1704279025877448400,10.563448486328125,-0.0587310791015625,1.064208984375,-1.1918792724609375
1704279025887422200,10.573422119140625,-0.063995361328125,1.008270263671875,-1.1354217529296875
1704279025897397200,10.583397216796875,-0.0758209228515625,0.9599456787109375,-1.1146392822265625
1704279025907372300,10.593372314453125,-0.087158203125,0.921234130859375,-1.1054840087890625
1704279025917346300,10.60334619140625,-0.098663330078125,0.892852783203125,-1.092132568359375
1704279025927321000,10.613321044921875,-0.1019287109375,0.8720245361328125,-1.0724639892578125
1704279025937295000,10.623295166015625,-0.0999755859375,0.8498077392578125,-1.045318603515625
1704279025947270100,10.633270263671875,-0.0950164794921875,0.82635498046875,-1.010040283203125
1704279025957244200,10.643244140625,-0.0895538330078125,0.8064727783203125,-0.9722442626953125
1704279025967219500,10.653219482421875,-0.0822601318359375,0.7886962890625,-0.939971923828125
1704279025977193500,10.663193359375,-0.0814666748046875,0.7655487060546875,-0.907806396484375
1704279025987168300,10.673168212890625,-0.079193115234375,0.741729736328125,-0.87872314453125
1704279025997142300,10.683142333984375,-0.078277587890625,0.72674560546875,-0.854034423828125
1704279026007117300,10.693117431640625,-0.0816192626953125,0.708892822265625,-0.8331298828125
1704279026017091300,10.70309130859375,-0.0872650146484375,0.6999969482421875,-0.81170654296875
1704279026027066000,10.713066162109374,-0.09283447265625,0.6883544921875,-0.783203125
1704279026037040000,10.7230400390625,-0.09649658203125,0.6634063720703125,-0.7540130615234375
1704279026047015200,10.73301513671875,-0.10638427734375,0.6402130126953125,-0.7200927734375
1704279026056990500,10.742990478515624,-0.12078857421875,0.6153411865234375,-0.6846466064453125
1704279026066964500,10.752964599609374,-0.1305389404296875,0.5888519287109375,-0.6466827392578125
1704279026076939300,10.762939208984376,-0.1344757080078125,0.562408447265625,-0.61187744140625
1704279026086913300,10.772913330078126,-0.1370849609375,0.53863525390625,-0.5823974609375
1704279026096888300,10.782888427734376,-0.1393585205078125,0.522064208984375,-0.561004638671875
1704279026106862300,10.7928623046875,-0.1383056640625,0.5135955810546875,-0.5465850830078125
1704279026116837400,10.80283740234375,-0.1332244873046875,0.5137481689453125,-0.540252685546875
1704279026126811400,10.812811279296875,-0.1236724853515625,0.5301666259765625,-0.545745849609375
1704279026136786200,10.8227861328125,-0.111083984375,0.560546875,-0.5562744140625
1704279026146760200,10.83276025390625,-0.097808837890625,0.590972900390625,-0.565185546875
1704279026156735200,10.8427353515625,-0.08453369140625,0.619781494140625,-0.570098876953125
1704279026166709200,10.852709228515625,-0.0737762451171875,0.6455078125,-0.565338134765625
1704279026176684300,10.862684326171875,-0.069915771484375,0.6603240966796875,-0.5455474853515625
1704279026186659300,10.872659423828125,-0.0657501220703125,0.6809234619140625,-0.523529052734375
1704279026196633300,10.88263330078125,-0.0588836669921875,0.6869659423828125,-0.4896240234375
1704279026206608400,10.8926083984375,-0.0505828857421875,0.674530029296875,-0.451751708984375
1704279026216582400,10.90258251953125,-0.04803466796875,0.6576995849609375,-0.41314697265625
1704279026226557200,10.91255712890625,-0.04754638671875,0.6401824951171875,-0.384368896484375
1704279026236531200,10.92253125,-0.0479278564453125,0.6275634765625,-0.3799591064453125
1704279026246506200,10.93250634765625,-0.0472259521484375,0.6417694091796875,-0.421661376953125
1704279026256480300,10.942480224609374,-0.0455474853515625,0.6867523193359375,-0.501617431640625
1704279026266455300,10.952455322265624,-0.0373992919921875,0.745819091796875,-0.5964202880859375
1704279026276429000,10.962428955078124,-0.0189208984375,0.802490234375,-0.6774139404296875
1704279026286404400,10.972404296875,0.000244140625,0.853851318359375,-0.7522430419921875
1704279026296378400,10.98237841796875,0.0188140869140625,0.893402099609375,-0.8183746337890625
1704279026306353700,10.992353759765624,0.0387420654296875,0.9055328369140625,-0.8739013671875
1704279026316328400,11.002328369140624,0.0475311279296875,0.8901824951171875,-0.9048309326171875
1704279026326302500,11.012302490234376,0.0444793701171875,0.859039306640625,-0.9148101806640625
1704279026336277500,11.022277587890626,0.0301055908203125,0.818023681640625,-0.9155731201171875
1704279026346251500,11.03225146484375,0.0091400146484375,0.7713623046875,-0.920013427734375
1704279026356226600,11.0422265625,-0.011871337890625,0.731781005859375,-0.9431610107421875
1704279026366200300,11.052200439453125,-0.02520751953125,0.7127685546875,-0.981414794921875
1704279026376175400,11.06217529296875,-0.0348663330078125,0.719268798828125,-1.0322113037109375
1704279026386149400,11.0721494140625,-0.035125732421875,0.74346923828125,-1.0932769775390625
1704279026396124400,11.08212451171875,-0.026702880859375,0.7906494140625,-1.1617431640625
1704279026406098400,11.092098388671875,-0.0059051513671875,0.8504486083984375,-1.23858642578125
1704279026416073500,11.102073486328125,0.019317626953125,0.9059295654296875,-1.3130645751953125
1704279026426047500,11.112047607421875,0.0450439453125,0.9526824951171875,-1.3842315673828125
1704279026436022500,11.1220224609375,0.06884765625,0.9883270263671875,-1.4404144287109375
1704279026445996500,11.13199658203125,0.0866546630859375,1.00897216796875,-1.4771270751953125
1704279026455971600,11.1419716796875,0.1009979248046875,1.0068359375,-1.491912841796875
1704279026465946400,11.1519462890625,0.0918426513671875,0.981475830078125,-1.46514892578125
1704279026475920400,11.16192041015625,0.0934600830078125,0.953125,-1.4734039306640625
1704279026485895400,11.1718955078125,0.06298828125,0.9295501708984375,-1.4454345703125
1704279026495869400,11.181869384765625,0.0279541015625,0.8980865478515625,-1.4059906005859375
1704279026505844500,11.191844482421875,-0.008056640625,0.866455078125,-1.3762054443359375
1704279026515818500,11.201818603515624,-0.0497283935546875,0.8484344482421875,-1.3474578857421875
1704279026525793500,11.21179345703125,-0.0919952392578125,0.830657958984375,-1.324188232421875
1704279026535767600,11.221767578125,-0.134613037109375,0.8090667724609375,-1.29644775390625
1704279026545742600,11.23174267578125,-0.1740875244140625,0.7811431884765625,-1.2723846435546875
1704279026555716600,11.241716552734376,-0.2037811279296875,0.74456787109375,-1.248748779296875
1704279026565691400,11.25169140625,-0.2200469970703125,0.70538330078125,-1.220703125
1704279026575665400,11.26166552734375,-0.2209930419921875,0.6626434326171875,-1.2051544189453125
1704279026585640400,11.271640380859376,-0.2151336669921875,0.6335296630859375,-1.2053070068359375
1704279026595615500,11.281615478515626,-0.2069091796875,0.6120147705078125,-1.2030792236328125
1704279026605589500,11.291589599609376,-0.19305419921875,0.588226318359375,-1.1975555419921875
1704279026615564500,11.301564453125,-0.1833953857421875,0.557830810546875,-1.1805419921875
1704279026625538600,11.31153857421875,-0.1750946044921875,0.533050537109375,-1.1660614013671875
1704279026635513600,11.321513671875,-0.16851806640625,0.5132904052734375,-1.1470794677734375
1704279026645487600,11.331487548828125,-0.1563568115234375,0.4906158447265625,-1.1240234375
1704279026655462400,11.34146240234375,-0.1370391845703125,0.465362548828125,-1.097808837890625
1704279026665436400,11.3514365234375,-0.1183319091796875,0.4405059814453125,-1.0724639892578125
1704279026675411500,11.361411376953125,-0.09857177734375,0.4188995361328125,-1.0532073974609375
1704279026685385500,11.371385498046875,-0.0811767578125,0.39617919921875,-1.0360260009765625
1704279026695360500,11.381360595703125,-0.065643310546875,0.3697967529296875,-1.0174560546875
1704279026705334500,11.39133447265625,-0.053619384765625,0.344970703125,-0.996978759765625
1704279026715309300,11.401309326171875,-0.0431060791015625,0.3252105712890625,-0.977874755859375
1704279026725284600,11.41128466796875,-0.0365753173828125,0.3104705810546875,-0.9581451416015625
1704279026735258600,11.421258544921875,-0.03314208984375,0.2979736328125,-0.9397125244140625
1704279026745233400,11.4312333984375,-0.0324859619140625,0.2880706787109375,-0.9268798828125
1704279026755207400,11.44120751953125,-0.033782958984375,0.285186767578125,-0.9181060791015625
1704279026765182500,11.451182373046874,-0.0391998291015625,0.2918701171875,-0.9210968017578125
1704279026775156500,11.461156494140624,-0.04425048828125,0.3115386962890625,-0.936279296875
1704279026785131500,11.471131591796874,-0.0486602783203125,0.343841552734375,-0.96160888671875
1704279026795105500,11.48110546875,-0.0498809814453125,0.379974365234375,-0.9952850341796875
1704279026805080300,11.491080322265624,-0.04705810546875,0.4174346923828125,-1.0299835205078125
1704279026815054300,11.501054443359376,-0.041534423828125,0.453765869140625,-1.0635986328125
1704279026825029400,11.511029296875,-0.0295562744140625,0.4829254150390625,-1.0957183837890625
1704279026835003400,11.52100341796875,-0.017303466796875,0.503021240234375,-1.132110595703125
1704279026844978700,11.530978759765626,-0.0087127685546875,0.5044708251953125,-1.1576995849609375
1704279026854953500,11.540953369140626,-0.0033721923828125,0.4984283447265625,-1.1968231201171875
1704279026864927500,11.550927490234375,-0.00762939453125,0.5225372314453125,-1.2530364990234375
1704279026874902500,11.560902587890626,-0.02813720703125,0.579254150390625,-1.3202056884765625
1704279026884876500,11.57087646484375,-0.046356201171875,0.6331634521484375,-1.3726348876953125
1704279026894851300,11.580851318359375,-0.060211181640625,0.6737823486328125,-1.406280517578125
1704279026904825300,11.590825439453125,-0.07623291015625,0.7085113525390625,-1.416534423828125
1704279026914800400,11.60080029296875,-0.0937042236328125,0.7324371337890625,-1.3931121826171875
1704279026924774400,11.6107744140625,-0.10321044921875,0.738616943359375,-1.338531494140625
1704279026934749400,11.62074951171875,-0.1037750244140625,0.7328338623046875,-1.2733917236328125
1704279026944723500,11.630723388671875,-0.1036834716796875,0.7227783203125,-1.2170867919921875
1704279026954698500,11.640698486328125,-0.10064697265625,0.71392822265625,-1.1737213134765625
1704279026964672500,11.650672607421875,-0.0916900634765625,0.717010498046875,-1.14471435546875
1704279026974647600,11.6606474609375,-0.08111572265625,0.7324676513671875,-1.134613037109375
1704279026984622600,11.67062255859375,-0.0717315673828125,0.7575836181640625,-1.1478271484375
1704279026994596600,11.6805966796875,-0.063629150390625,0.7988433837890625,-1.181182861328125
1704279027004571400,11.6905712890625,-0.0641937255859375,0.8513641357421875,-1.221710205078125
1704279027014545400,11.70054541015625,-0.063568115234375,0.9105072021484375,-1.268341064453125
1704279027024520400,11.7105205078125,-0.0615997314453125,0.9668426513671875,-1.2980194091796875
1704279027034494500,11.720494384765624,-0.0646209716796875,1.023773193359375,-1.3164520263671875
1704279027044469500,11.730469482421874,-0.0762786865234375,1.0744476318359375,-1.3278350830078125
1704279027054443300,11.740443359375,-0.0936279296875,1.10858154296875,-1.3304290771484375
1704279027064418600,11.75041845703125,-0.111114501953125,1.1336669921875,-1.3270416259765625
1704279027074392600,11.760392578125,-0.1220245361328125,1.1498565673828125,-1.3113250732421875
1704279027084367600,11.77036767578125,-0.1270751953125,1.158966064453125,-1.2886962890625
1704279027094341600,11.780341552734376,-0.1267547607421875,1.1661529541015625,-1.2681884765625
1704279027104316400,11.79031640625,-0.1188201904296875,1.16351318359375,-1.24639892578125
1704279027114291500,11.80029150390625,-0.11151123046875,1.1439361572265625,-1.2164459228515625
1704279027124265500,11.810265380859375,-0.1078643798828125,1.1136322021484375,-1.1855010986328125
1704279027134240500,11.820240478515625,-0.1056365966796875,1.078887939453125,-1.1600341796875
1704279027144214300,11.83021435546875,-0.1015777587890625,1.0466156005859375,-1.1440582275390625
1704279027154189600,11.840189453125,-0.0959625244140625,1.0177001953125,-1.1273193359375
1704279027164163600,11.85016357421875,-0.0916900634765625,0.98681640625,-1.1066436767578125
1704279027174138600,11.860138671875,-0.08941650390625,0.952606201171875,-1.084686279296875
1704279027184112600,11.870112548828125,-0.089691162109375,0.9176483154296875,-1.06158447265625
1704279027194087400,11.88008740234375,-0.08984375,0.887115478515625,-1.038360595703125
1704279027204061400,11.8900615234375,-0.089630126953125,0.8615264892578125,-1.01422119140625
1704279027214036500,11.900036376953125,-0.09381103515625,0.83477783203125,-0.987030029296875
1704279027224010500,11.910010498046875,-0.09979248046875,0.81939697265625,-0.96673583984375
1704279027233985500,11.919985595703125,-0.0986328125,0.80328369140625,-0.9446258544921875
1704279027243960300,11.929960205078125,-0.095977783203125,0.7822418212890625,-0.920867919921875
1704279027253934300,11.939934326171874,-0.0955047607421875,0.7646331787109375,-0.895843505859375
1704279027263909600,11.94990966796875,-0.102752685546875,0.7490234375,-0.8687744140625
1704279027273883600,11.959883544921874,-0.1044769287109375,0.732208251953125,-0.83819580078125
1704279027283858400,11.9698583984375,-0.104827880859375,0.7144317626953125,-0.8033905029296875
1704279027293832000,11.97983203125,-0.1102447509765625,0.6981048583984375,-0.7685089111328125
1704279027303807000,11.989806884765626,-0.1191253662109375,0.6813507080078125,-0.731109619140625
1704279027313781000,11.999781005859376,-0.1240692138671875,0.6588897705078125,-0.6881866455078125
1704279027323756300,12.00975634765625,-0.12799072265625,0.635894775390625,-0.6447296142578125
1704279027333730300,12.019730224609376,-0.1310577392578125,0.6107177734375,-0.6037445068359375
1704279027343705000,12.029705078125,-0.1314544677734375,0.5872955322265625,-0.57012939453125
1704279027353680100,12.03968017578125,-0.127410888671875,0.575103759765625,-0.5465545654296875
1704279027363654100,12.049654052734375,-0.1221923828125,0.5713043212890625,-0.52935791015625
1704279027373629200,12.059629150390625,-0.1137237548828125,0.5749664306640625,-0.5186767578125
1704279027383603200,12.069603271484375,-0.1006317138671875,0.584564208984375,-0.511322021484375
1704279027393578000,12.079577880859375,-0.08575439453125,0.603668212890625,-0.50958251953125
1704279027403552000,12.089552001953125,-0.070159912109375,0.62896728515625,-0.5088653564453125
1704279027413527000,12.099527099609375,-0.05889892578125,0.6535186767578125,-0.4996337890625
1704279027423501000,12.1095009765625,-0.047119140625,0.66925048828125,-0.4806976318359375
1704279027433476000,12.11947607421875,-0.0412750244140625,0.676239013671875,-0.4542236328125
1704279027443450000,12.1294501953125,-0.036773681640625,0.6761016845703125,-0.417388916015625
1704279027453425200,12.139425048828125,-0.02362060546875,0.650665283203125,-0.3728485107421875
1704279027463400200,12.149400146484375,-0.0144805908203125,0.623260498046875,-0.3367462158203125
1704279027473374200,12.159374267578125,-0.0103302001953125,0.603179931640625,-0.3099822998046875
1704279027483349000,12.169348876953125,-0.0086517333984375,0.59796142578125,-0.3089447021484375
1704279027493323000,12.179322998046874,-0.010650634765625,0.6133880615234375,-0.343231201171875
1704279027503298000,12.189298095703125,-0.0103302001953125,0.6488494873046875,-0.4097137451171875
1704279027513272000,12.19927197265625,0.001434326171875,0.6902313232421875,-0.4767608642578125
1704279027523247000,12.2092470703125,0.019287109375,0.7239990234375,-0.5271453857421875
1704279027533221000,12.21922119140625,0.0419464111328125,0.759002685546875,-0.5737762451171875
1704279027543196200,12.229196044921874,0.064056396484375,0.7873992919921875,-0.622283935546875
1704279027553170200,12.239170166015626,0.0809326171875,0.8125152587890625,-0.6778106689453125
1704279027563145200,12.249145263671876,0.09552001953125,0.8251495361328125,-0.7357177734375
1704279027573120000,12.2591201171875,0.1050872802734375,0.8364715576171875,-0.7946319580078125
1704279027583094000,12.269093994140626,0.1046142578125,0.839996337890625,-0.8475799560546875
1704279027593069000,12.279069091796876,0.0954132080078125,0.8336334228515625,-0.895721435546875
1704279027603043000,12.28904296875,0.0755157470703125,0.826263427734375,-0.943115234375
1704279027613018000,12.29901806640625,0.04608154296875,0.8198089599609375,-0.9918670654296875
1704279027622992100,12.3089921875,0.0146484375,0.8297576904296875,-1.0494232177734375
1704279027632967000,12.318966796875,-0.013275146484375,0.866241455078125,-1.12445068359375
1704279027642941000,12.32894091796875,-0.0327911376953125,0.9219970703125,-1.20843505859375
1704279027652916200,12.338916259765625,-0.036773681640625,0.987518310546875,-1.2876739501953125
1704279027662890200,12.34889013671875,-0.030853271484375,1.075042724609375,-1.37298583984375
1704279027672865300,12.358865234375,-0.0192108154296875,1.1576690673828125,-1.4590606689453125
1704279027682839000,12.368839111328125,-0.009490966796875,1.2200775146484375,-1.537017822265625
1704279027692814000,12.37881396484375,-0.0045166015625,1.248443603515625,-1.5839080810546875
1704279027702789000,12.3887890625,-0.00518798828125,1.2322540283203125,-1.5957489013671875
1704279027712763100,12.39876318359375,-0.0115509033203125,1.1919097900390625,-1.5911407470703125
1704279027722738000,12.408738037109375,-0.0287628173828125,1.1401214599609375,-1.559814453125
1704279027732712000,12.4187119140625,-0.045928955078125,1.080291748046875,-1.529815673828125
1704279027742687000,12.42868701171875,-0.0592193603515625,1.02398681640625,-1.502899169921875
1704279027752661000,12.438660888671874,-0.084503173828125,0.9873199462890625,-1.4824676513671875
1704279027762636300,12.44863623046875,-0.114654541015625,0.9453125,-1.4623260498046875
1704279027772610300,12.4586103515625,-0.1388092041015625,0.8975677490234375,-1.4367523193359375
1704279027782585000,12.468585205078124,-0.1620025634765625,0.857635498046875,-1.4064178466796875
1704279027792559000,12.47855908203125,-0.181610107421875,0.8247833251953125,-1.37957763671875
1704279027802534100,12.4885341796875,-0.1938934326171875,0.7914581298828125,-1.3505706787109375
1704279027812509200,12.49850927734375,-0.1901092529296875,0.7266845703125,-1.306060791015625
1704279027822483000,12.50848291015625,-0.19732666015625,0.7242889404296875,-1.289825439453125
1704279027832458000,12.5184580078125,-0.2011871337890625,0.7201995849609375,-1.301605224609375
1704279027842432000,12.528431884765626,-0.1756439208984375,0.6821441650390625,-1.3089599609375
1704279027852407300,12.5384072265625,-0.1381683349609375,0.6429595947265625,-1.2906646728515625
1704279027862381300,12.54838134765625,-0.108673095703125,0.6232757568359375,-1.2667236328125
1704279027872356000,12.558356201171875,-0.0920562744140625,0.60137939453125,-1.2288665771484375
1704279027882330000,12.568330078125,-0.095947265625,0.5634307861328125,-1.1447296142578125
1704279027892305200,12.57830517578125,-0.049560546875,0.5439910888671875,-1.168304443359375
1704279027902279200,12.588279052734375,-0.035614013671875,0.5380096435546875,-1.129180908203125
1704279027912254200,12.598254150390625,-0.02252197265625,0.5095977783203125,-1.08233642578125
1704279027922228200,12.608228271484375,-0.009765625,0.4773101806640625,-1.0444183349609375
1704279027932203000,12.618203125,-0.00115966796875,0.4496307373046875,-0.999786376953125
1704279027942178000,12.628177978515625,0.0048065185546875,0.4182281494140625,-0.965606689453125
1704279027952152000,12.638152099609375,0.0095062255859375,0.391357421875,-0.9411468505859375
1704279027962127000,12.648127197265625,0.0093231201171875,0.3707122802734375,-0.9251861572265625
1704279027972101000,12.65810107421875,0.0041656494140625,0.3524322509765625,-0.916015625
1704279027982076200,12.668076171875,-0.0023040771484375,0.3393096923828125,-0.917572021484375
1704279027992050200,12.67805029296875,-0.0117645263671875,0.324737548828125,-0.9174041748046875
1704279028002025200,12.688025146484375,-0.0194091796875,0.306396484375,-0.914764404296875
1704279028011999200,12.697999267578124,-0.021881103515625,0.2960205078125,-0.913970947265625
1704279028021974000,12.70797412109375,-0.0229339599609375,0.2990570068359375,-0.9230194091796875
1704279028031949000,12.717948974609374,-0.0224609375,0.3166046142578125,-0.94647216796875
1704279028041923000,12.727923095703124,-0.0268402099609375,0.3467864990234375,-0.9799652099609375
1704279028051898000,12.737898193359374,-0.0283355712890625,0.38360595703125,-1.0198211669921875
1704279028061872000,12.7478720703125,-0.0276641845703125,0.4225616455078125,-1.0665435791015625
1704279028071847200,12.75784716796875,-0.024200439453125,0.458465576171875,-1.1225128173828125
1704279028081821200,12.7678212890625,-0.022918701171875,0.4691925048828125,-1.1651611328125
1704279028091796200,12.777796142578126,-0.0253753662109375,0.4596099853515625,-1.183868408203125
1704279028101770200,12.787770263671876,-0.025970458984375,0.4528656005859375,-1.192626953125
1704279028111745000,12.7977451171875,-0.0248565673828125,0.466888427734375,-1.22113037109375
1704279028121719000,12.807718994140625,-0.03167724609375,0.5131378173828125,-1.2630615234375
1704279028131694000,12.817694091796875,-0.0455474853515625,0.583221435546875,-1.315826416015625
1704279028141668000,12.827668212890625,-0.05712890625,0.673004150390625,-1.379730224609375
1704279028151643100,12.83764306640625,-0.0615386962890625,0.7642364501953125,-1.4339599609375
