time,seconds_elapsed,z,y,x
1704279015345619200,0.031619140625,0.11627134073078632,-0.08792816656082868,-0.03418547045737505
1704279015355593200,0.04159326171875,0.08777005338966846,-0.12341390596181154,-0.036303485524654386
1704279015365568300,0.051568359375,-0.05169686948955059,-0.18429945955723523,-0.025851868810877202
1704279015375542300,0.061542236328125,-0.32811434851288795,-0.1917500678241253,-0.02711743176728487
1704279015385517300,0.071517333984375,-0.4830968204319477,-0.1716433916017413,-0.058600657528638835
1704279015395491300,0.0814912109375,-0.32266601997911926,-0.22953005564212797,-0.1293226916141808
1704279015405465300,0.09146533203125,0.08844049999713897,-0.2532885323703289,-0.18009893912747502
1704279015415440400,0.1014404296875,0.45489539282023905,-0.17096680751442908,-0.12090002344474196
1704279015425414400,0.111414306640625,0.7384598209887743,-0.16291735657155512,-0.25049495612904427
1704279015435389200,0.12138916015625,0.5214356111764907,-0.05599778155386448,-0.7125511074241251
1704279015445363200,0.13136328125,0.05778700305819511,0.18115356274694203,-0.9153671975333243
1704279015455338200,0.141338134765625,0.1416822608411312,0.05373129792660474,-0.6133063778832555
1704279015465312300,0.151312255859375,0.055982583984732624,-0.1888756814315915,-0.4584668946314603
1704279015475287300,0.161287353515625,-0.0856552531927824,-0.24227643222957848,-0.23705365607999263
1704279015485261300,0.17126123046875,-0.34637013617157936,-0.16296353380084036,-0.1046293451886624
1704279015495236000,0.181236083984375,-0.7127700839370489,-0.11972118892371654,-0.3257146669600159
1704279015505210000,0.191210205078125,-0.9291033888757229,0.13032207791507244,-0.9513109098348767
1704279015515185400,0.201185302734375,-0.8493798638194799,0.4391264535412192,-0.9329324456445872
1704279015525159400,0.211159423828125,-0.894458776473999,0.4671639227628708,-0.6716463386490941
1704279015535134200,0.22113427734375,-0.9529320082306861,0.255830325807631,-0.8424751989975571
1704279015545108200,0.231108154296875,-0.8619085060030222,0.24973463928103445,-0.8069659325905144
1704279015555083300,0.241083251953125,-0.6847019273161887,0.3611819208562374,-0.7420419172592461
1704279015565057300,0.251057373046875,-0.44666357104778287,0.4211941987484693,-0.7966582543920725
1704279015575031300,0.26103125,-0.17541151196360588,0.3700152156531811,-0.8904303246755152
1704279015585006300,0.27100634765625,0.19509236398935317,0.29632717136889697,-0.8186653574083
1704279015594980400,0.28098046875,0.6575175677925348,0.24828736308217048,-0.5867288982115686
1704279015604955100,0.290955078125,1.0938935535818337,0.17743454222381114,-0.23797920995969324
1704279015614929200,0.30092919921875,1.3513064724057913,0.07156126138865947,0.08322291147932409
1704279015624904200,0.310904296875,1.4809113419622182,-0.08908522764146327,0.31900735134109853
1704279015634878200,0.320878173828125,1.5465759465277193,-0.2201969946295023,0.5256540325891226
1704279015644853200,0.330853271484375,1.5490134028077125,-0.278456583635509,0.6886033186689019
1704279015654827300,0.3408271484375,1.4497621704608201,-0.3381996891975403,0.7609222665570676
1704279015664802300,0.35080224609375,1.309389238652587,-0.37241643157601356,1.1469164109781385
1704279015674776300,0.3607763671875,1.0917068571925164,-0.3738695529937744,2.193504608027637
1704279015684751400,0.37075146484375,0.6626742199033498,-0.5078574599400162,2.030744926235825
1704279015694725400,0.380725341796875,-0.09896189401149749,-0.5541255823791027,1.7737953871399164
1704279015704700200,0.3907001953125,-2.0875486173450946,-0.339518662841618,1.3497022520795463
1704279015714674200,0.400674072265625,-4.4952983258605,-0.20901362957507372,1.522155352628976
1704279015724649200,0.410649169921875,-1.4347890577346085,0.07052168920785189,1.0397720872938632
1704279015734623200,0.420623291015625,-1.183566225722432,0.15167670837193725,0.6464503764636814
1704279015744597200,0.43059716796875,-0.36373160533905025,-0.05521364543884992,0.0711377935458906
1704279015754572000,0.440572021484375,0.6727367642343044,-0.07846037325263022,-0.10654473208962008
1704279015764546000,0.450546142578125,1.1892460249245167,-0.06125175655931234,-0.08264741314630955
1704279015774521300,0.460521240234375,1.4006769447743892,-0.21688334003686904,-0.13062188284555448
1704279015784495400,0.470495361328125,1.229932255578041,-0.37671325198709965,-0.07109675828260369
1704279015794470400,0.480470458984375,1.2076450204461813,-0.33814152926951646,0.12777758106403053
1704279015804444400,0.4904443359375,1.1570686794191598,-0.3331602337256074,0.348492060228996
1704279015814419200,0.500419189453125,0.6657429598242044,-0.375272697789967,0.46175318629313256
1704279015824393200,0.510393310546875,0.08036942174434661,-0.3138908851101994,0.24651520231049506
1704279015834368300,0.5203681640625,-0.4506237068504095,-0.14009323808401822,-0.0689084727243986
1704279015844342300,0.53034228515625,-0.7629547952979803,0.07471241889595985,-0.2458780734507367
1704279015854317300,0.5403173828125,-1.0057628501862288,0.20443214700371026,-0.30807178703527893
1704279015864291000,0.550291015625,-1.4337316576361656,0.230484872148931,-0.24373894253019243
1704279015874266400,0.560266357421875,-1.3113935642123222,0.2747013227552175,-0.01011050252537243
1704279015884240100,0.570240234375,-0.7558218746781349,0.14350187748372553,0.09910384149914607
1704279015894215400,0.58021533203125,-0.31042320899963377,-0.10177227525711059,0.0914366861384362
1704279015904189400,0.590189453125,-0.0548597174346447,-0.2215554235011339,-0.0026495144283631817
1704279015914163500,0.60016357421875,0.19481471609175205,-0.12298749724328517,0.04251835058466531
1704279015924138200,0.61013818359375,0.4939852941930294,0.008512684540450573,-0.020118782218708657
1704279015934112300,0.6201123046875,0.4130477171719074,-0.003188566908240318,-0.40620062775611876
1704279015944087300,0.63008740234375,0.23349136048853397,0.19422054959088564,-0.7638125811710953
1704279015954061300,0.640061279296875,0.05470423461198806,0.3475020628109574,-0.6813138923130929
1704279015964036400,0.650036376953125,-0.1739420239329338,0.1273912851601839,-0.32121709981244057
1704279015974010000,0.660010009765625,-0.3639081309497356,-0.12797653770223258,0.09116660049278288
1704279015983985200,0.669985107421875,-0.421692795920372,-0.2694872413687408,0.2883688510418869
1704279015993959200,0.679959228515625,-0.3734422674924135,-0.29285189647376536,0.2861248897736892
1704279016003934500,0.6899345703125,-0.20384090311229228,-0.3480164420738816,0.4460783550383523
1704279016013908500,0.699908447265625,0.023075170639157296,-0.15181567845121025,0.2727715602690354
1704279016023883300,0.70988330078125,-0.0017979893326759337,-0.11487477180585265,0.2677801451899111
1704279016033857300,0.719857177734375,-0.2596241651326418,-0.23401377692744135,0.23180888729430735
1704279016043832300,0.729832275390625,-0.5939817919492721,-0.2625475052334368,0.06485054823625833
1704279016053806300,0.739806396484375,-0.8032827140331268,-0.20864348108842967,0.05053856629990041
1704279016063781400,0.749781494140625,-0.7849813336670398,-0.05072597863078117,0.0911222133617848
1704279016073755400,0.75975537109375,-0.6640379094719886,0.09031097004413605,0.11936899621887131
1704279016083730200,0.769730224609375,-0.5012234287530184,0.06541121432632208,0.18757550381952895
1704279016093704200,0.7797041015625,-0.2674263633161783,-0.01874795508980751,0.11813693367326632
1704279016103679200,0.78967919921875,-0.09254150557518005,-0.14772680170238017,0.07503285562251694
1704279016113653200,0.7996533203125,0.04913841717839241,-0.08477437870502472,-0.014605539789143949
1704279016123627300,0.809627197265625,0.017620412364602087,-0.07194879940152168,-0.04926334959915839
1704279016133602300,0.819602294921875,-0.06777998928427696,-0.11776011798381805,-0.08615314711178652
1704279016143576300,0.829576416015625,-0.0440279422968626,-0.04870265610963106,-0.12096143477577716
1704279016153551400,0.83955126953125,-0.04707739299535751,-0.007493862886726856,0.06197352236206643
1704279016163525400,0.849525390625,-0.16769523849785328,-0.04144201745688915,0.22981016949145122
1704279016173500400,0.85950048828125,-0.2326788750618696,-0.058173664288222786,0.14722420420879498
1704279016183474200,0.86947412109375,-0.22886486973166464,-0.07149696398079394,0.0012154402043670414
1704279016193449200,0.87944921875,-0.12057868253588676,-0.04921206693649292,-0.13074686093209312
1704279016203423200,0.88942333984375,-0.008263385954499243,-0.08755787194371223,-0.08991992489993572
1704279016213398300,0.899398193359375,0.034167642539739605,-0.11617226427048444,-0.027333202542969955
1704279016223372300,0.909372314453125,0.0691641371190548,-0.09260083454698324,0.008268071262771263
1704279016233347000,0.91934716796875,-0.008776011651754378,-0.12249532981216907,0.005658345422102138
1704279016243321000,0.929321044921875,-0.16210604018867014,-0.12253595408350229,0.010162625438254327
1704279016253296400,0.93929638671875,-0.26247897004187104,-0.06692717184722423,-0.01311215029307641
1704279016263270400,0.9492705078125,-0.2397849076747894,0.0302574833586812,0.1995607233087532
1704279016273245400,0.959245361328125,-0.06315817470252513,-0.015062836836278438,0.2131702012652531
1704279016283220000,0.969219970703125,0.07067337263822555,-0.20022154357135294,0.06410545635684393
1704279016293195000,0.979195068359375,0.24804069484472274,-0.23090075947344302,0.24479634262863545
1704279016303169000,0.9891689453125,0.23826690432727335,-0.13483371012061834,0.2926810882178135
1704279016313143000,0.99914306640625,0.06668225717544556,-0.14586743757128715,0.11713435076829046
1704279016323118300,1.009118408203125,-0.020088848304748535,-0.1648722900316119,0.06493285622484982
1704279016333092000,1.019092041015625,0.022755437165498733,-0.1648918715149164,0.06086668449817225
1704279016343067100,1.029067138671875,0.007034720942378044,-0.20558803904056547,0.04160128140551969
1704279016353041200,1.039041259765625,-0.05062485634386539,-0.12376695718318223,-0.04470901989620179
1704279016363016200,1.04901611328125,-0.11808745024204254,-0.08896101673990488,0.006844769594538957
1704279016372990200,1.058990234375,-0.11916180147528647,-0.15103285751044748,0.04804150705346837
1704279016382965000,1.068965087890625,0.0301987389087677,-0.1841959991827607,0.02442442982364446
1704279016392939000,1.07893896484375,0.18477263002693653,-0.1491372530221939,0.08464141824143007
1704279016402914000,1.0889140625,0.24902444518506525,-0.16082681403309107,0.027286230729240923
1704279016412888000,1.09888818359375,0.18789923761487007,-0.18452976118177175,-0.21860366102345286
1704279016422863000,1.108863037109375,0.009708908587694168,-0.1209144903615117,-0.2886459326839074
1704279016432837000,1.118837158203125,-0.1065823058873415,-0.031000410680472847,-0.028257980104535816
1704279016442812200,1.128812255859375,-0.15373919385969637,-0.08992372429221868,0.07397902658749371
1704279016452786200,1.1387861328125,-0.1349327865809202,-0.032084991046786304,0.007145889699272811
1704279016462761200,1.14876123046875,-0.12264730550348758,0.008366261807084083,-0.09522921028919518
1704279016472735200,1.1587353515625,-0.15482582005262374,-0.029596681362390517,-0.06198383369352668
1704279016482710000,1.1687099609375,-0.18434943617880342,-0.003208440652489662,0.0229199435448274
1704279016492684000,1.17868408203125,-0.25512802275717256,0.023942016601562498,0.04260861355084926
1704279016502659000,1.1886591796875,-0.2023445270746946,0.011951719078421592,0.14434442925509064
1704279016512633000,1.198633056640625,-0.015054361268877983,-0.022159809359908102,-0.016130393002554772
1704279016522607000,1.208607177734375,-0.01462707576751709,-0.03739011171758175,-0.2577805830925703
1704279016532582100,1.21858203125,-0.1724649371176958,0.024318448698520657,0.10066299884095788
1704279016542556200,1.22855615234375,-0.23226444904208182,-0.01063683708757162,0.08568937465809286
1704279016552531000,1.238531005859375,-0.27706571379899975,-0.032039398339390755,-0.02437806993126869
1704279016562505000,1.2485048828125,-0.26633798355758187,-0.03056640317738056,-0.05340802078898996
1704279016572480300,1.258480224609375,-0.17309505171477793,-0.049455812564492226,-0.05746241074632853
1704279016582454300,1.268454345703125,-0.012470774516463279,-0.047744624732434744,-0.10146967558134347
1704279016592429000,1.278428955078125,0.11324702447354792,-0.11968202595710754,-0.02362480387855321
1704279016602403000,1.288403076171875,0.20343232231140135,-0.1413148888334632,0.05982745937723666
1704279016612378000,1.298378173828125,0.21169220113456247,-0.16251520551145077,0.13728782527446745
1704279016622352100,1.30835205078125,0.10910802497267723,-0.20491496208459137,0.0779316001381725
1704279016632327200,1.3183271484375,0.015565233400464057,-0.08915624705106019,-0.031376587049104274
1704279016642301200,1.32830126953125,-0.12351298242211341,0.026085750631988047,0.023539025291241703
1704279016652276000,1.33827587890625,-0.27037410720586774,0.029758886186778542,0.1395995728155598
1704279016662250000,1.34825,-0.24781916104853152,0.2696615750223398,0.001956467830017209
1704279016672225000,1.35822509765625,-0.3680599899321794,0.4341971804454922,-0.16806345075573773
1704279016682199000,1.368198974609375,-0.5348866289019585,0.03315232801735401,-0.15042502781040964
1704279016692174000,1.378174072265625,-0.26860183683633804,-0.38077421781569715,0.13430537539757786
1704279016702148000,1.388148193359375,0.21301614321470258,-0.26857582561224697,0.15609364803135395
1704279016712123100,1.398123046875,0.6321873117029666,-0.11853314818292855,0.08973510638494044
1704279016722097200,1.40809716796875,0.4262333619594574,-0.4215203619629144,0.0901985591782257
1704279016732071200,1.4180712890625,0.2611696410089731,-0.1829430765122175,0.2997593377746641
1704279016742046200,1.428046142578125,0.4531190307974815,-0.22862930741012094,0.25917357182092965
1704279016752020200,1.438020263671875,0.5853834749519825,-0.8053077901199459,0.03492481758259237
1704279016761995000,1.4479951171875,0.9373328725606203,-0.33731647662222386,0.304573167797178
1704279016771969000,1.457968994140625,1.2958470355123282,-0.38266339256316423,0.6718471219182014
1704279016781944000,1.467944091796875,0.9072720808178186,-0.9968962376415729,0.2533911890272051
1704279016791918000,1.47791796875,0.5037076467841863,-0.7709875873669981,-0.2527080290686339
1704279016801893000,1.48789306640625,0.6309077932864428,-0.4988137372627854,-0.01576718571335077
1704279016811867000,1.497866943359375,0.8336854510813951,-0.5035112474292517,0.13495872473977505
1704279016821842200,1.50784228515625,0.8732564139693975,-0.33948096117973325,0.15993636799938976
1704279016831816200,1.517816162109375,0.9014718701064586,-0.05913549505770206,0.33891324429437514
1704279016841791200,1.527791259765625,0.7095335862338542,0.2139107539668679,0.30720673117116093
1704279016851765200,1.53776513671875,0.29646307270824906,-0.18813070828318595,0.4703893145501613
1704279016861740000,1.547739990234375,0.07819032413959502,-0.5294824317708611,0.2651053730227053
1704279016871714000,1.557714111328125,0.258653858795762,-0.2622299637168646,0.03394289387315511
1704279016881689000,1.567689208984375,0.5332645806580781,0.13801204789578914,0.13062865964621304
1704279016891663000,1.5776630859375,0.5581862559467554,0.12692922060638664,0.4608864499285817
1704279016901638100,1.58763818359375,0.5737339536905288,0.051772272813320155,0.6219381587587297
1704279016911612200,1.597612060546875,0.8817518551141023,0.20568097802102564,0.634216625573486
1704279016921587000,1.6075869140625,0.8743710972130299,-0.38429537767916916,-0.05696925693452358
1704279016931561000,1.61756103515625,0.6231868436455726,-0.3016761311814189,-0.2339323822543025
1704279016941536300,1.627536376953125,0.6383955186933279,-0.33071167152971026,-0.4505366130888462
1704279016951510300,1.63751025390625,0.9874790054768323,-0.06632628334462642,-0.8962292932778596
1704279016961485000,1.647485107421875,2.286342173939943,0.44853199526816606,-1.8122133806005118
1704279016971459000,1.657458984375,3.5802544419974085,-0.6349407020643353,-2.459334934324026
1704279016981433000,1.66743310546875,4.206174509999156,-1.7540820941492914,-1.0579806748099625
1704279016991408000,1.677408203125,3.288126183623075,-1.3847916856393216,-0.06181070561632514
1704279017001382100,1.687382080078125,2.521810971981287,-0.317561974838376,0.10147650718092918
1704279017011357200,1.697357177734375,2.2779811728298665,0.2303834576010704,-0.046806759360432625
1704279017021331000,1.7073310546875,1.7556611800342796,-0.13367694130092858,-0.1378492585495114
1704279017031306000,1.717305908203125,0.879521904104948,-0.4961559162303805,-0.1497393105685711
1704279017041280000,1.727280029296875,0.183065241587162,-0.7210887072101235,-0.5377162993699311
1704279017051255000,1.737255126953125,0.08730009779036045,-0.8636927590712904,-0.9436951010689139
1704279017061229000,1.74722900390625,0.447646152344346,-0.8485933896169066,-1.1337786969855428
1704279017071204000,1.7572041015625,1.0404974789589643,-0.4612611284598708,-1.1053975288927556
1704279017081178000,1.76717822265625,1.8337281700551509,0.41066403690576553,-1.6414567087054253
1704279017091153200,1.777153076171875,2.818169415271282,1.0163926730111241,-1.750501897574961
1704279017101127200,1.787127197265625,3.5710359472751616,1.3965680481508373,-1.2824796044170856
1704279017111102200,1.797102294921875,3.841829741197824,1.614583899348974,-0.4705485967651009
1704279017121076200,1.807076171875,3.7941058669924734,1.734942509393394,0.21563713936805723
1704279017131051000,1.817051025390625,3.4741894379824396,1.7456445206716655,0.912418796056509
1704279017141025000,1.82702490234375,3.302736892777681,1.698555729499459,1.1650763370469213
1704279017151000000,1.837,3.3106156633287664,1.417033328552544,1.0167238046616316
1704279017160974000,1.84697412109375,3.248663357284665,1.208314882531762,1.0053270891174673
1704279017170949000,1.85694921875,3.1281548173755405,1.1410858051285147,0.9075658030673861
1704279017180923000,1.8669228515625,3.015507512360811,1.3135729540780186,0.8540078158810734
1704279017190898200,1.876898193359375,2.221765364611149,1.2177680627927183,1.0609206737846135
1704279017200872200,1.8868720703125,1.8747604376673697,0.8895455777302383,1.373274558585882
1704279017210846200,1.89684619140625,1.5997925729304552,0.5528618460536002,1.4844333786085246
1704279017220821200,1.9068212890625,0.6844587662100792,0.02258855616599321,1.2834256530955432
1704279017230795300,1.916795166015625,-0.04416939659416675,-0.43058688099384307,0.6775847887873649
1704279017240770000,1.92677001953125,0.05545125358700752,-0.32526480430066584,0.08434007894098758
1704279017250744000,1.936744140625,0.2047545108258724,0.2565694537371397,-0.24253625220954417
1704279017260719000,1.946718994140625,0.5376777209252118,0.84387775927186,-0.5752519570380449
1704279017270693000,1.956693115234375,0.7920856127142906,1.3219821782439947,-0.8559674255162477
1704279017280667400,1.96666748046875,0.9956190573126077,1.814587416255474,-1.1911837149888276
1704279017290641400,1.976641357421875,1.2394178768038748,2.2564526471108195,-1.7759212932527064
1704279017300616200,1.9866162109375,1.39439041185081,2.6831407671004532,-2.139149040722847
1704279017310590200,1.996590087890625,1.649551167833805,2.9764708024799824,-2.1524825695484875
1704279017320565500,2.0065654296875,2.06344293461442,3.085772011937201,-1.9005092114299535
1704279017330539500,2.01653955078125,2.2418156344711777,3.092491383320093,-1.4533388599038124
1704279017340514300,2.026514404296875,1.9070815755575894,2.957243539440632,-0.8972218114465474
1704279017350488300,2.03648828125,1.4315864623010157,2.789534564678371,-0.21095804164111612
1704279017360463400,2.04646337890625,1.1680430778980255,2.8315701641142366,0.17925006721317768
1704279017370437400,2.056437255859375,1.2295225057333707,2.965143645040691,0.12205576935112476
1704279017380412400,2.066412353515625,1.6794307577908039,3.5060534797549248,0.04949497553110122
1704279017390386400,2.076386474609375,2.465944707852602,4.120763586956262,-0.22202537910044193
1704279017400361200,2.086361328125,3.1512995461195707,4.46736957771033,-0.2537935592830181
1704279017410335200,2.096335205078125,3.6410032174706455,4.805211831772327,-0.19213877488076686
1704279017420310300,2.106310302734375,3.8973873777687547,5.120549116298556,-0.2509399234175682
1704279017430284300,2.1162841796875,3.940492360001802,5.3292286916136735,-0.4655331066906452
1704279017440259600,2.126259521484375,3.8644215122342107,5.618723678874969,-0.6840192057490349
1704279017450233300,2.1362333984375,3.6787089710086582,5.959414600366354,-0.9907201793551444
1704279017460208400,2.14620849609375,3.3794998144626613,6.291326587596536,-1.311665951412916
1704279017470182400,2.156182373046875,3.018424276590347,6.428512706062198,-1.4637187996208667
1704279017480156400,2.166156494140625,2.6824130373477932,6.4755684717476365,-1.2832283769577741
1704279017490131500,2.17613134765625,2.185958138170838,7.066758002629876,-1.50175889967978
1704279017500105500,2.18610546875,1.5825371944859623,7.520116102880239,-1.806120032161474
1704279017510080300,2.196080322265625,1.0206938773363827,7.8486875475108615,-2.1300930430859326
1704279017520054300,2.20605419921875,0.5274427426367998,8.117301074784994,-2.6493308519572016
1704279017530029300,2.216029296875,-0.10878215401917696,8.259148755320906,-3.286684752643108
1704279017540003300,2.22600341796875,-0.9061407387003302,8.297755841612815,-3.9888019251406193
1704279017549978400,2.235978271484375,-1.673709311404079,8.049750802603363,-4.61413571768701
1704279017559952400,2.245952392578125,-2.147770738595724,7.500946122986078,-5.019552501589059
1704279017569927400,2.255927490234375,-2.4188731600761413,6.988847079953551,-5.644786925414205
1704279017579901400,2.2659013671875,-2.593566879159212,6.48307840898633,-6.370255747404694
1704279017589876500,2.27587646484375,-2.5881594671577215,5.994785188955068,-6.807015764075517
1704279017599850500,2.2858505859375,-2.3504361681878567,5.481828652310371,-6.959397113585472
1704279017609825300,2.2958251953125,-2.013022076410055,4.960055187481641,-6.983920729467273
1704279017619799300,2.30579931640625,-1.6813959203839302,4.462101281918585,-7.013029919573664
1704279017629774300,2.3157744140625,-1.4098457551360128,3.8636306541174648,-7.1867089086562395
1704279017639748400,2.325748291015625,-1.2333353420197963,3.2351264148414134,-7.458155613529682
1704279017649723400,2.335723388671875,-1.176653158398345,2.6025007117211816,-7.854954206690191
1704279017659697400,2.345697509765625,-1.1555869164288044,2.0336481003314257,-8.30942172948718
1704279017669672200,2.355672119140625,-1.2764112442888318,1.5103537095457316,-8.806137909948825
1704279017679646200,2.365646240234375,-1.4934816313304007,0.9181886116296052,-9.130631145355105
1704279017689621500,2.37562158203125,-1.7090473128974437,0.26470482939779755,-9.235298557531832
1704279017699595500,2.385595458984375,-1.898012718439102,-0.39005613316297527,-9.137570004707575
1704279017709570300,2.3955703125,-2.003937291070074,-1.0398498287051916,-8.922290008214116
1704279017719544300,2.40554443359375,-2.060867385037988,-1.5866373232811688,-8.63386060435772
1704279017729519400,2.415519287109375,-2.1190940946877,-1.9381366390347479,-8.416488604021072
1704279017739493400,2.425493408203125,-2.1804737154103813,-2.3412457305163143,-8.208691656759381
1704279017749468400,2.435468505859375,-2.4040334644712504,-2.8815847796052694,-7.849761898744106
1704279017759442400,2.4454423828125,-2.7410911440268158,-3.362802946683764,-7.515613530763983
1704279017769416400,2.45541650390625,-3.08193170312196,-3.7495039241999386,-7.268046883171796
1704279017779391200,2.46539111328125,-3.339090062662959,-4.002095706477761,-7.1782304186463355
1704279017789365200,2.475365234375,-3.4699697744607922,-4.13598512148559,-7.171317862778902
1704279017799340300,2.48534033203125,-3.5915137948974967,-4.321103788471222,-7.122807806631922
1704279017809314300,2.495314208984375,-3.7242297822117805,-4.66885573439002,-7.013499875172973
1704279017819289300,2.505289306640625,-3.83269950928092,-5.11642122271359,-6.865753784248232
1704279017829263400,2.515263427734375,-3.866481367373466,-5.472658088383079,-6.704824971145391
1704279017839238400,2.52523828125,-3.8142330014809964,-5.72765751632452,-6.662587419396639
1704279017849212400,2.53521240234375,-3.6946304705008863,-5.889532670366764,-6.77334730322957
1704279017859187500,2.5451875,-3.604092121441662,-6.119013626170158,-6.852686797404289
1704279017869161500,2.555161376953125,-3.5118276792421934,-6.424941861838102,-6.813526168882847
1704279017879136300,2.56513623046875,-3.37343160046488,-6.762260092025995,-6.683478231734037
1704279017889110300,2.5751103515625,-3.220311123025417,-7.030393726828694,-6.5594438557863235
1704279017899085300,2.585085205078125,-3.061526336213946,-7.225512978824972,-6.501297956287861
1704279017909059300,2.595059326171875,-2.9274703324675557,-7.360237675613164,-6.5103954549789425
1704279017919034400,2.605034423828125,-2.8010698119103905,-7.465982361632585,-6.560162817710638
1704279017929008000,2.615008056640625,-2.6882240617141124,-7.492206936213374,-6.710173346436023
1704279017938983400,2.6249833984375,-2.577543965119123,-7.396324303516745,-6.890083923384547
1704279017948957400,2.63495751953125,-2.491287238901853,-7.306522452038526,-7.026064757713675
1704279017958932500,2.644932373046875,-2.439747898061573,-7.174690554082393,-7.174447392976283
1704279017968906500,2.654906494140625,-2.42190112959519,-7.018807918453216,-7.218232758688926
1704279017978881300,2.66488134765625,-2.423860008578002,-6.8007999583005905,-7.268676997768878
1704279017988855300,2.674855224609375,-2.431598201614618,-6.435002652603387,-7.452067233526706
1704279017998830300,2.684830322265625,-2.4777213626250623,-6.032789048656821,-7.562629548960924
1704279018008804400,2.694804443359375,-2.622752057111263,-5.787256537240744,-7.570594828751683
1704279018018779400,2.704779296875,-2.6539415606230494,-5.394805033373832,-7.6336021968066685
1704279018028753400,2.71475341796875,-2.740521527445316,-4.955332835134864,-7.663445546406507
1704279018038728200,2.724728271484375,-2.7794468859061596,-4.579555987215042,-7.709435144165158
1704279018048702200,2.7347021484375,-2.7905308822393415,-4.284008275786042,-7.667440169000625
1704279018058677500,2.744677490234375,-2.747913391262293,-4.014682800850272,-7.59404409340024
1704279018068651500,2.754651611328125,-2.6364836453437803,-3.7477211324363946,-7.559478975975513
1704279018078625500,2.76462548828125,-2.4831939488172527,-3.4063609333813187,-7.580337639608979
1704279018088600300,2.774600341796875,-2.3482767981968817,-3.049727177348733,-7.5051517579823726
1704279018098574300,2.78457421875,-2.201563119059801,-2.741332843828201,-7.345915720272064
1704279018108549400,2.79454931640625,-2.0215503969110546,-2.544417940586805,-7.085607664528489
1704279018118523400,2.8045234375,-1.7972798692323266,-2.384918868026137,-6.750232385101914
1704279018128498400,2.81449853515625,-1.5857038418233393,-2.211345092883706,-6.380814550819992
1704279018138472200,2.82447216796875,-1.3377800513565539,-2.0427496906757354,-6.023312195259332
1704279018148447200,2.834447265625,-1.06582064772062,-1.8844699307769537,-5.698462401500344
1704279018158421200,2.844421142578125,-0.8861247364360839,-1.7176882999926804,-5.356373888170719
1704279018168396300,2.854396240234375,-0.7763724952757358,-1.382448629644513,-5.146591904571652
1704279018178370300,2.864370361328125,-0.6231156050402671,-0.8385212006747722,-5.093409180438519
1704279018188345300,2.874345458984375,-0.449843406660296,-0.15571137071549893,-5.120141120019555
1704279018198319400,2.8843193359375,-0.32875498450398444,0.5653209301322698,-5.233453026422858
1704279018208294400,2.89429443359375,-0.2599684485256672,1.350738317129016,-5.356093902185559
1704279018218268400,2.904268310546875,-0.19758593437075614,2.145823111659288,-5.489614483880996
1704279018228243500,2.914243408203125,-0.138057056081295,2.9608395181059834,-5.660644419759512
1704279018238217500,2.924217529296875,-0.08900339457690715,3.7503321917176247,-5.775112510460615
1704279018248192300,2.934192138671875,-0.06326163507699967,4.48451915769279,-5.702332520931959
1704279018258166300,2.944166259765625,-0.05559385866178199,5.006189162147045,-5.484762367674708
1704279018268141300,2.954141357421875,-0.042851920787431295,5.29100388263762,-5.211128381890058
1704279018278115300,2.964115234375,-0.05419803865551948,5.392540011051297,-4.9426919647485015
1704279018288091000,2.9740908203125,-0.09767711489796638,5.541465667149424,-4.740964692789316
1704279018298065000,2.98406494140625,-0.17427348437700418,5.770843747100233,-4.5563259182751175
1704279018308040000,2.9940400390625,-0.24926464714910834,5.980092062214016,-4.3351165317326785
1704279018318014000,3.004013916015625,-0.32724633350670335,6.116392045494914,-3.9697260532706973
1704279018327988700,3.01398876953125,-0.38486090260744094,6.183690973263978,-3.532820490649342
1704279018337962800,3.023962646484375,-0.47267479513883587,6.215182674592733,-3.0168367151379583
1704279018347937800,3.033937744140625,-0.5657347716301679,6.224470142897963,-2.4648317781746387
1704279018357911800,3.043911865234375,-0.6558651244103908,6.218517371973395,-1.9524404741972683
1704279018367886800,3.053886962890625,-0.7314917355418205,6.229773510003089,-1.5230442642927169
1704279018377860900,3.06386083984375,-0.777481917822361,6.359590561005473,-1.1541033998727799
1704279018387836000,3.0738359375,-0.7736451161384582,6.559197187548875,-0.822588887527585
1704279018397810000,3.083809814453125,-0.7562053210377693,6.8070110879004,-0.5290571920961141
1704279018407785000,3.093784912109375,-0.7118319263041019,7.032438968920707,-0.22859072896540164
1704279018417759000,3.103759033203125,-0.654686143758893,7.2071654212296,0.10582242743074893
1704279018427734000,3.113734130859375,-0.58799573980961,7.371648711943626,0.39489012919068334
1704279018437707800,3.123707763671875,-0.5467214436024427,7.573723774427175,0.6854542069882154
1704279018447682800,3.133682861328125,-0.4865069576689973,7.82123781504929,0.9619488429009914
1704279018457656800,3.14365673828125,-0.39511407413966954,7.994044112950563,1.2735399266362188
1704279018467630800,3.153630859375,-0.24165767927672713,8.029642665076254,1.6424211698234081
1704279018477606000,3.16360595703125,-0.12213055162038654,7.955523535898327,2.0431822368741033
1704279018487580000,3.173579833984375,0.01739252189286053,7.830608285462856,2.4284575655013323
1704279018497554700,3.1835546875,0.1684224567938596,7.718817889538407,2.756464361986518
1704279018507528700,3.19352880859375,0.267735063939169,7.608182508867978,3.0573294690459965
1704279018517504000,3.20350390625,0.2952238132368773,7.4711208935648195,3.3232278921425342
1704279018527478000,3.21347802734375,0.29555889041014016,7.309245155000686,3.564744738176465
1704279018537453000,3.223453125,0.2812240025222301,7.20468587937355,3.813894271045923
1704279018547426800,3.2334267578125,0.2492401337623596,7.130990528565645,4.085531530055404
1704279018557401900,3.24340185546875,0.22903328510113058,7.062810726308822,4.351547442051768
1704279018567376000,3.2533759765625,0.1934188778191805,7.009671841317415,4.644162607160211
1704279018577351000,3.263350830078125,0.18811843332350253,6.962127999854087,4.917054834666848
1704279018587325000,3.273324951171875,0.1888203710477799,6.95098993524611,5.1875142820686095
1704279018597299700,3.2832998046875,0.22083003183603286,6.952638871496916,5.484295334684848
1704279018607273700,3.293273681640625,0.2928453936677426,6.956738708031177,5.734094855895638
1704279018617249000,3.3032490234375,0.4348340170443058,6.964824983853101,5.968406300595403
1704279018627222800,3.313222900390625,0.6183277862418443,6.9686933497190475,6.0806473628968
1704279018637198000,3.323197998046875,0.8656629631657153,7.1758046528041355,6.009315818610787
1704279018647172000,3.333172119140625,0.9805519096273928,7.3148460437476635,5.985383154359459
1704279018657147000,3.34314697265625,1.0929250738758594,7.431043150198459,5.888213404461741
1704279018667121000,3.353120849609375,1.2708861972570418,7.723330983048677,5.621708247643709
1704279018677096000,3.363095947265625,1.4609218623787164,8.174747301581501,5.236145918768644
1704279018687070000,3.373070068359375,1.6304437317818403,8.591677997666597,4.773699087655544
1704279018697044700,3.383044677734375,1.7599357886135578,8.84570419666171,4.354039258867502
1704279018707018800,3.393018798828125,1.834267099237442,8.92776522475481,3.9284944636940953
1704279018716993800,3.402993896484375,1.8437457062005995,9.002467706778646,3.443089950841665
1704279018726967800,3.4129677734375,1.6547931601405144,8.997738924691081,2.8622961417675015
1704279018736943000,3.422943115234375,1.3941285460442303,8.952545445746184,2.2845360013008116
1704279018746917000,3.432917236328125,1.1699836175065488,9.017849400305748,1.5375491749852894
1704279018756892000,3.442891845703125,0.9139150990288704,9.216378168484567,0.5349252073466777
1704279018766866000,3.452865966796875,0.6855155817866325,9.403113623017072,-0.482549707943201
1704279018776841000,3.462841064453125,0.77087455544658,9.907837753367424,-1.8065806354105471
1704279018786815000,3.47281494140625,0.6534294216960668,10.30210595126748,-3.1012802544534206
1704279018796789800,3.482789794921875,0.3487760648021474,10.340596717703342,-3.9899195309936997
1704279018806763800,3.492763671875,0.07658584808502346,10.061258382797241,-4.488820069757104
1704279018816738800,3.50273876953125,-0.20650106223225592,9.471549445861577,-4.835828503832221
1704279018826712800,3.512712890625,-0.49670507454574103,8.630312556487322,-4.967471016696095
1704279018836688000,3.52268798828125,-0.7121814703941345,7.671829343870281,-4.998564074096083
1704279018846662000,3.532661865234375,-0.8297159629285336,6.736640497601032,-5.0723915268510575
1704279018856637000,3.542636962890625,-0.9259013779640197,5.879006015655398,-5.23242309885323
1704279018866611000,3.55261083984375,-0.9777519767105579,5.048391642582416,-5.4365708759576075
1704279018876586000,3.5625859375,-0.9185539378106593,4.256746467112005,-5.701836261847615
1704279018886560000,3.57256005859375,-0.7011527113795281,3.6624867350041863,-6.248070798715949
1704279018896535000,3.58253515625,-0.5782242508471012,3.138851567956805,-6.966650445714593
1704279018906508800,3.5925087890625,-0.5394073211967945,2.5546675319224597,-7.734272648301721
1704279018916483800,3.60248388671875,-0.5455529843449592,2.0401473992228505,-8.355911093461513
1704279018926457900,3.612457763671875,-0.4400046611478552,1.4333236613571643,-8.72207314081788
1704279018936433000,3.622432861328125,-0.26754147759582847,0.8739338748395442,-8.86892140612006
1704279018946407000,3.632406982421875,-0.18400277816560118,0.3335626770466566,-8.969740910696983
1704279018956381700,3.642381591796875,-0.26893611029200254,-0.17623510330617426,-8.8922923448354
1704279018966355700,3.652355712890625,-0.49494975531101226,-0.6169827283084393,-8.676719502875208
1704279018976329700,3.662329833984375,-0.8977402092974632,-1.036730819901824,-8.336070082437992
1704279018986305000,3.672304931640625,-1.3736369621574878,-1.366474815443158,-7.904612263828516
1704279018996279000,3.682279052734375,-1.9060839428223668,-1.5439818383812904,-7.625679002591967
1704279019006254000,3.692254150390625,-2.3729706560790538,-2.026333393403888,-7.150085689657926
1704279019016227800,3.702227783203125,-2.716915026408434,-2.4473943211615086,-6.631645168644189
1704279019026203000,3.712202880859375,-2.949761659252643,-2.750145680359006,-6.267772693529725
1704279019036177000,3.722177001953125,-3.2431285195112225,-3.1153391749441623,-6.006717034289241
1704279019046152000,3.73215185546875,-3.5416064391732216,-3.5532232272088526,-5.736282136806845
1704279019056126000,3.7421259765625,-3.770451435160637,-4.010309992593527,-5.394516864082217
1704279019066100700,3.752100830078125,-3.853020120514929,-4.410342745369673,-5.157983067157864
1704279019076074800,3.76207470703125,-3.916137670946121,-4.85945897026658,-4.951553901118039
1704279019086049800,3.7720498046875,-3.668638243371248,-4.930187872484326,-5.020250420725345
1704279019096023800,3.78202392578125,-3.5514942114591594,-5.158828870332241,-4.9462511185348035
1704279019105999000,3.7919990234375,-3.7595918952330947,-5.725839653247594,-4.565260335358977
1704279019115973000,3.80197314453125,-3.7783167617082594,-6.034996787834167,-4.3813253251999615
1704279019125948000,3.811947998046875,-3.67502209918946,-6.221028478011489,-4.3963352628052235
1704279019135922000,3.821921875,-3.5656241513594984,-6.38714258479774,-4.482967252075672
1704279019145897000,3.83189697265625,-3.4785540629327296,-6.557020428031683,-4.548930547326803
1704279019155871000,3.84187109375,-3.4360148978888985,-6.733083681902289,-4.550839011296629
1704279019165845800,3.851845703125,-3.41674730283916,-6.915340529716015,-4.511936741450429
1704279019175819800,3.86181982421875,-3.4113597645819187,-7.117222115454077,-4.48961092787385
1704279019185794800,3.871794921875,-3.4112700404718517,-7.3273752704530954,-4.546923006896674
1704279019195768800,3.881768798828125,-3.439293481168151,-7.514526320049166,-4.671424415834248
1704279019205743900,3.891743896484375,-3.4513571361884474,-7.650094481924175,-4.731885606537759
1704279019215718000,3.9017177734375,-3.439211063581705,-7.728985647809505,-4.7524932180196044
1704279019225693000,3.91169287109375,-3.4153041182935238,-7.735990558135509,-4.802692250166833
1704279019235667000,3.9216669921875,-3.381522260200977,-7.637308065587281,-4.91923334774971
1704279019245642000,3.93164208984375,-3.3400714749157427,-7.521461087748408,-4.968445414686203
1704279019255616000,3.941615966796875,-3.299092983317375,-7.380968913474678,-4.9819566381663085
1704279019265590800,3.9515908203125,-3.2412820148617025,-7.227236733877659,-5.006988788092136
1704279019275564800,3.961564697265625,-3.1594027730762955,-7.032252506437898,-5.043495687234401
1704279019285539300,3.971539306640625,-3.051960635489225,-6.836266993001103,-5.0434898420155045
1704279019295513300,3.981513427734375,-2.9460367935106158,-6.632156625297665,-5.038121008458734
1704279019305488400,3.99148828125,-2.825168480378389,-6.404284273734689,-4.984711489832401
1704279019315462400,4.00146240234375,-2.711735285682976,-6.145262750670313,-4.947483875200152
1704279019325437200,4.011437255859375,-2.6174562887907027,-5.8009027852773665,-4.972698395955562
1704279019335411200,4.0214111328125,-2.5590184206083415,-5.437773822006583,-5.083720730116963
1704279019345386200,4.03138623046875,-2.540613872128725,-5.0525464241743085,-5.232655154043436
1704279019355360300,4.0413603515625,-2.5069512565016745,-4.6881572317093605,-5.482471041867137
1704279019365335600,4.05133544921875,-2.4534569822013377,-4.349648914954066,-5.673933524921536
1704279019375309600,4.0613095703125,-2.33940740917325,-3.991452147388458,-5.889244501075148
1704279019385284400,4.071284423828125,-2.2086229744434354,-3.6375142063111063,-6.125774206346273
1704279019395258400,4.08125830078125,-2.0426037063337863,-3.3184897577047345,-6.351272229993343
1704279019405233400,4.0912333984375,-1.8452395980201661,-3.00735869269669,-6.697223263970017
1704279019415207400,4.10120751953125,-1.6795523383438586,-2.5438427710473537,-7.215443420231342
1704279019425182500,4.111182373046875,-1.52316935197711,-1.853189241850376,-7.885749742448329
1704279019435156200,4.12115625,-1.4113140741229055,-1.0932260295838117,-8.438679977563023
1704279019445131300,4.13113134765625,-1.3205588674426079,-0.4800426935583353,-8.697606808081268
1704279019455105300,4.141105224609375,-1.2466647791922092,0.0365033920109272,-8.798001949766277
1704279019465080300,4.151080322265625,-1.258017363333702,0.40250118871629237,-8.538246267208457
1704279019475054300,4.161054443359375,-1.2272586524546145,0.48166298823654646,-7.953838359290361
1704279019485029400,4.171029296875,-1.2897826209068297,0.3617103286445141,-7.179801028963923
1704279019495003400,4.18100341796875,-1.240323885732889,0.04411737414598465,-6.309658947622776
1704279019504978400,4.190978515625,-0.9932435603529214,-0.11372925503253936,-5.572310887268185
1704279019514952400,4.200952392578125,-0.7056359942734242,0.14472703536450862,-5.20773230971098
1704279019524927500,4.210927490234375,-0.42839083225429053,0.6664414634823799,-5.214450804311037
1704279019534901500,4.220901611328125,-0.1716623885631561,1.3555027550518512,-5.376239449113607
1704279019544876300,4.230876220703125,-0.03825757873449474,2.126528044080734,-5.6515071735799305
1704279019554850300,4.240850341796875,0.011509820529818535,2.915017385868728,-6.035545069366693
1704279019564825300,4.250825439453125,0.005171301690675318,3.64825917994827,-6.362495634797215
1704279019574799400,4.26079931640625,0.04908464116454124,4.23072004545182,-6.58474020960629
1704279019584774100,4.270774169921875,0.05064473008811474,4.712244794261455,-6.74858052624166
1704279019594748200,4.280748046875,-0.052229953452944754,5.079527370080352,-6.855391380187869
1704279019604723500,4.290723388671875,-0.24971593458056449,5.3885167468845845,-6.800921538853645
1704279019614697500,4.300697509765625,-0.48415714313983915,5.729750104689598,-6.497897207933664
1704279019624672500,4.310672607421875,-0.7844932578891515,6.1041281917273995,-6.102046124756336
1704279019634646500,4.320646484375,-1.0966671099483967,6.429087291079759,-5.678937616819143
1704279019644621300,4.330621337890625,-1.3145558276355265,6.671419545149803,-5.102549349227547
1704279019654595300,4.34059521484375,-1.460756442683935,6.924227016004919,-4.331265117001533
1704279019664570400,4.3505703125,-1.5424059673666952,7.075961299782991,-3.581020165672898
1704279019674544400,4.36054443359375,-1.5456009640157222,7.181735796418786,-2.8159119917333126
1704279019684519200,4.370519287109375,-1.558911696487665,7.2385448943555355,-2.152722808045149
1704279019694493200,4.3804931640625,-1.5299989057362078,7.324464935964346,-1.6519026993960142
1704279019704468200,4.39046826171875,-1.3983856189668178,7.373193603298068,-1.2151023507148027
1704279019714442200,4.400442138671875,-1.2664087595820426,7.42322633896768,-0.830550660187006
1704279019724417500,4.41041748046875,-1.1776128702759743,7.495013810327649,-0.497984592962265
1704279019734391600,4.4203916015625,-1.121554882967472,7.559387206038832,-0.19822949297130107
1704279019744366300,4.430366455078125,-1.1156664094507693,7.62164521703124,0.09055003949701786
1704279019754340400,4.44034033203125,-1.147879410791397,7.7004136333197355,0.3600093699455261
1704279019764315400,4.4503154296875,-1.1660288154661655,7.802694442620873,0.6068079557746648
1704279019774289400,4.460289306640625,-1.1758651498258113,7.964118930286169,0.8633516905486583
1704279019784264400,4.470264404296875,-1.1236837116897105,8.053246828025578,1.214326105645299
1704279019794238200,4.48023828125,-1.041544357663393,8.159353917616606,1.5497668515235186
1704279019804213200,4.490213134765625,-0.9874714066922664,8.228118241763115,1.9205553896367549
1704279019814187300,4.500187255859375,-0.9329764309167862,8.275499586141109,2.299666350415349
1704279019824162300,4.510162353515625,-0.8652338510334491,8.241512560865283,2.6852035448491574
1704279019834136300,4.52013623046875,-0.8503577689409255,8.175264603453874,3.0430379088431594
1704279019844111400,4.530111328125,-0.8640729905605316,8.136398573964835,3.3334862513065335
1704279019854085400,4.54008544921875,-0.8464005557477474,8.065679608619213,3.6277322324872014
1704279019864060400,4.550060302734375,-0.7546528308987617,8.042955735635758,3.905344474253058
1704279019874034400,4.560034423828125,-0.6182897192537784,8.0459742066741,4.160900951555371
1704279019884009500,4.570009521484375,-0.44842005932629103,8.062205795028806,4.354045104086399
1704279019893983500,4.5799833984375,-0.2980786912113428,8.118784591341019,4.488679784503579
1704279019903958300,4.589958251953125,-0.14528585655735804,8.229696450865267,4.563939315888286
1704279019913932300,4.599932373046875,-0.01478606572151184,8.378531506070495,4.560247475633025
1704279019923907300,4.6099072265625,0.07717910127043724,8.571887840047479,4.5023236944526435
1704279019933881300,4.61988134765625,0.15549507935000584,8.781370548439025,4.399912536770105
1704279019943856000,4.629856201171875,0.2212935576945543,9.004205490356684,4.2784377821773285
1704279019953830100,4.639830078125,0.3100321638554335,9.239047680932282,4.1864696925759315
1704279019963805400,4.649805419921875,0.40697102760672565,9.38890506492257,4.188912994074821
1704279019973779500,4.659779541015625,0.5128174204349517,9.508362049952149,4.257469228428602
1704279019983754500,4.66975439453125,0.6087818861961365,9.619970659568905,4.28983186737299
1704279019993728500,4.679728515625,0.7140455107003449,9.671903091379999,4.2239504051864145
1704279020003703300,4.689703369140625,0.8090589593470097,9.71403075301349,4.073635925078392
1704279020013677300,4.69967724609375,0.8726338981568813,9.798806885284185,3.8027643897444006
1704279020023652400,4.70965234375,0.8943681755810976,9.990082321333885,3.3007577016592022
1704279020033626400,4.71962646484375,0.9236743495643138,10.348273828202485,2.5153999358952044
1704279020043601200,4.72960107421875,0.8635556886881589,10.82553945826292,1.553266384077072
1704279020053575200,4.7395751953125,0.7423194190263748,11.246067886579036,0.6659136402159929
1704279020063550200,4.74955029296875,0.5972358253091573,11.485741735094784,-0.11693068142235279
1704279020073524200,4.759524169921875,0.4622632547071203,11.382550240689515,-0.8731652285546064
1704279020083499500,4.76949951171875,0.29622860636524856,11.135960329174996,-1.3838760320991277
1704279020093473500,4.7794736328125,0.058326443697139616,10.65079079412222,-1.5004033934175967
1704279020103448300,4.7894482421875,-0.16604169913716613,10.008857164430617,-1.5309230348438023
1704279020113422300,4.79942236328125,-0.3501941149065271,9.387668216603993,-1.7571838595569134
1704279020123397400,4.8093974609375,-0.5487573698768392,8.702388781660794,-2.2211913641154766
1704279020133371400,4.819371337890625,-0.8308814995765685,8.035538152855635,-2.993231383144855
1704279020143346400,4.829346435546875,-1.125361289513111,7.3954551194667815,-3.881105520531535
1704279020153320200,4.8393203125,-1.2941998528271912,6.741059483087063,-4.750900395870208
1704279020163295200,4.849295166015625,-1.287462069004774,6.124347388413548,-5.58550646892786
1704279020173269200,4.859269287109375,-1.0775380465865134,5.667313814520836,-6.362101082521677
1704279020183243300,4.8692431640625,-0.6972983740389347,5.2927323138654225,-6.960887644404172
1704279020193218600,4.879218505859375,-0.24488371038483453,4.944443776851892,-7.360119602191448
1704279020203193300,4.889193359375,0.2337444402004592,4.525803938761353,-7.673294155725836
1704279020213167400,4.89916748046875,0.5492179365932941,4.072471849735081,-7.848055679348111
1704279020223142400,4.909142333984375,0.7883528559267521,3.5508266874611376,-7.994426974788308
1704279020233116400,4.919116455078125,1.1492173813968896,3.2326804829940197,-8.623620949894189
1704279020243091500,4.929091552734375,1.1380372312128544,2.8981197348207233,-8.775447003608942
1704279020253065500,4.9390654296875,0.8923369620144367,2.4251819048315286,-8.722441974130273
1704279020263040300,4.949040283203125,0.4954793321430683,1.9056883676335215,-8.536834062322974
1704279020273014300,4.95901416015625,-0.09132339848969132,1.4292244093447923,-8.1618819747895
1704279020282989300,4.9689892578125,-0.8045651550590992,1.054528342399001,-7.775932692423463
1704279020292963300,4.97896337890625,-1.5489619648814201,0.697070410501957,-7.41170132086873
1704279020302938000,4.988938232421875,-2.2113830868065354,0.3302338248848915,-7.0277166165739295
1704279020312912100,4.998912109375,-2.7666952486217022,-0.099084059086442,-6.5486880684942
1704279020322887200,5.00888720703125,-3.234089473009109,-0.5956897649109363,-5.9911079617470495
1704279020332861200,5.018861083984375,-3.5714123793721195,-1.1645049668997525,-5.537244250062107
1704279020342836200,5.028836181640625,-3.777017954069376,-1.7506763773590326,-5.285853660267591
1704279020352810200,5.038810302734375,-3.867123172408342,-2.30179050296247,-5.302852725863456
1704279020362785300,5.048785400390625,-3.9199499227106567,-2.7907822266519067,-5.454512775361538
1704279020372759300,5.05875927734375,-3.9990275510787963,-3.267921599984169,-5.530553227990866
1704279020382734300,5.068734375,-4.06306426218152,-3.7252912739634514,-5.666385593760014
1704279020392708400,5.078708251953125,-4.1427135529577725,-4.144187717163563,-5.7846501541346305
1704279020402683100,5.08868310546875,-4.201573738205433,-4.527456382143497,-5.833268346831202
1704279020412657200,5.0986572265625,-4.2242324369981885,-4.88394693031311,-5.863799678695202
1704279020422632200,5.108632080078125,-4.2047739955514665,-5.188561160773038,-5.896244735226035
1704279020432606200,5.118606201171875,-4.132800353969634,-5.487741675746441,-5.855592991364002
1704279020442581200,5.128581298828125,-4.047550174446403,-5.77970802155733,-5.803191772997379
1704279020452555300,5.13855517578125,-3.989650650924444,-6.067005791035294,-5.777525416821241
1704279020462530000,5.148530029296875,-3.935973421272635,-6.376252357470989,-5.738541313910484
1704279020472504000,5.158504150390625,-3.897002762365341,-6.68078650843203,-5.693617884078622
1704279020482479400,5.168479248046875,-3.9012838006854054,-6.951691361513733,-5.6454316530585285
1704279020492453400,5.178453369140625,-3.885881356631219,-7.1720555294036865,-5.631899971312284
1704279020502428400,5.188428466796875,-3.871503871710598,-7.316476275297999,-5.6056192826300855
1704279020512402200,5.198402099609375,-3.85303648712784,-7.405157598313688,-5.554952340710162
1704279020522377200,5.208377197265625,-3.8472327692851422,-7.4950880446076384,-5.478419720649719
1704279020532351200,5.218351318359375,-3.80920056027174,-7.588894455552101,-5.353834725081921
1704279020542326300,5.228326171875,-3.685788700136542,-7.62867584632039,-5.205990434479713
1704279020552300300,5.23830029296875,-3.527955514961481,-7.569290760415792,-5.083002937236428
1704279020562275000,5.248275146484375,-3.3987934207364914,-7.39420774975419,-5.1238557566285134
1704279020572249000,5.2582490234375,-3.2899428776562214,-7.166474514400958,-5.291627567493915
1704279020582224100,5.26822412109375,-3.211590056431293,-6.910044761395454,-5.541729286521673
1704279020592198100,5.2781982421875,-3.1325697112083435,-6.634090223708748,-5.843871573910117
1704279020602173400,5.28817333984375,-3.037411885654926,-6.4004492256164545,-6.209177881219983
1704279020612147500,5.2981474609375,-2.8888763979181644,-6.237744635012746,-6.526693094307184
1704279020622122200,5.308122314453125,-2.7134336140334603,-6.223821908122301,-6.6879591765403745
1704279020632096300,5.31809619140625,-2.52876210629344,-6.301311975038051,-6.864553176286816
1704279020642071300,5.3280712890625,-2.4546412235498427,-6.296065891078114,-7.150593054658174
1704279020652045300,5.33804541015625,-2.429865532603115,-6.049920800721645,-7.540870721617341
1704279020662020000,5.34802001953125,-2.442129970892519,-5.560148740309477,-8.12292359084189
1704279020671994000,5.357994140625,-2.506595867192745,-4.920215344524383,-8.775314317139983
1704279020681969200,5.36796923828125,-2.581868258059025,-4.214979747745394,-9.331561129456757
1704279020691943200,5.377943115234375,-2.6145266650795933,-3.5020582726389167,-9.698529232499002
1704279020701918200,5.387918212890625,-2.673266438817978,-2.8126690642893313,-9.853277311140298
1704279020711892200,5.397892333984375,-2.7006770083129403,-2.259738244652748,-9.674562081456184
1704279020721867300,5.4078671875,-2.6751509373903275,-1.9870605366796255,-9.154451581403613
1704279020731841300,5.41784130859375,-2.527001526361704,-2.044279384461045,-8.38700824251473
1704279020741816300,5.42781640625,-2.310058272831142,-2.2076865703761577,-7.614664272102713
1704279020751790300,5.437790283203125,-1.9962229173004626,-2.33522983122766,-6.992927042743563
1704279020761765000,5.44776513671875,-1.6227929247677326,-2.3117659535318613,-6.585791764485836
1704279020771739100,5.4577392578125,-1.271732584953308,-2.0435878950655457,-6.448852898779511
1704279020781714200,5.467714111328125,-0.9785738144874572,-1.5306898106098175,-6.561824613443017
1704279020791688200,5.477688232421875,-0.7744190231204032,-0.8088859408676624,-6.913302301886677
1704279020801663200,5.487663330078125,-0.5755214216291904,0.11125146674215793,-7.402872117725014
1704279020811637200,5.49763720703125,-0.37754385759234427,1.1971709727048874,-7.797253128349781
1704279020821612000,5.507612060546875,-0.20321372939096763,2.2415876709342,-7.983895643901825
1704279020831586000,5.5175859375,-0.20920213788449762,3.178984840902686,-8.061718888294696
1704279020841561300,5.527561279296875,-0.43174189624786374,3.9859278310090303,-8.02467364449203
1704279020851535400,5.537535400390625,-0.6282949804395437,4.703865088450908,-7.8262927603513
1704279020861510400,5.547510498046875,-0.7651233715087175,5.437996524846554,-7.497516148537397
1704279020871484200,5.557484130859375,-0.8969318885892629,6.054303545850515,-6.9785548185199495
1704279020881459200,5.567459228515625,-1.0401426741719246,6.4680526892900465,-6.269121185529231
1704279020891433200,5.57743310546875,-1.2140075412154196,6.656660367435217,-5.451255234870314
1704279020901408300,5.587408203125,-1.2937141151368616,6.592037380877136,-4.567355846333504
1704279020911382300,5.59738232421875,-1.370498079609871,6.436474478721618,-3.7211674720317123
1704279020921357000,5.607357177734375,-1.455415081655979,6.338993763178586,-3.120820236703753
1704279020931331000,5.6173310546875,-1.4799310987532137,6.333552448907494,-2.6378917585760355
1704279020941306000,5.62730615234375,-1.4099755189955234,6.433969802424311,-2.2161188831567764
1704279020951280000,5.637280029296875,-1.3375555949509144,6.542008736860752,-1.855477645048499
1704279020961255400,5.64725537109375,-1.2959399744927882,6.65147039757669,-1.5231944864183664
1704279020971229400,5.6572294921875,-1.258123746317625,6.779704563301801,-1.2129133162379264
1704279020981204200,5.667204345703125,-1.2165548876106738,6.934280792507529,-0.9138993900030851
1704279020991178200,5.67717822265625,-1.13396077555418,7.024811542782187,-0.5806827499151229
1704279021001153300,5.6871533203125,-1.0618600004613399,7.110895835041999,-0.23823767823278902
1704279021011127300,5.697127197265625,-1.10518359388113,7.260455697390436,0.00021568857729434965
1704279021021102000,5.70710205078125,-1.1963421206653118,7.434178525614738,0.19035773668289183
1704279021031076000,5.717076171875,-1.280337916213274,7.598618561708927,0.39271161610782146
1704279021041051100,5.727051025390625,-1.420136847525835,7.72022892538011,0.6216185714155436
1704279021051025200,5.737025146484375,-1.5954733945570885,7.819668958297371,0.9014210167020559
1704279021061000200,5.747000244140625,-1.7558078950285911,7.882378804710507,1.2182196059525012
1704279021070974200,5.75697412109375,-1.8683903181135653,7.876129681187868,1.5799948165267705
1704279021080949200,5.76694921875,-1.9195102644979953,7.862718410950898,1.9117413840621709
1704279021090923300,5.77692333984375,-1.9852350748181342,7.8488377696365115,2.231850705295801
1704279021100898300,5.786898193359375,-2.023130797970295,7.820739217877388,2.509292851191759
1704279021110872300,5.796872314453125,-1.9977765764832496,7.79749628945589,2.7662796535581347
1704279021120847000,5.80684716796875,-1.9042916525781153,7.8082549993574615,2.965426261374354
1704279021130821000,5.816821044921875,-1.8053168990850448,7.898670014297962,3.083751612025499
1704279021140796200,5.826796142578125,-1.6727110941469667,8.061036166727542,3.118056617209315
1704279021150770200,5.836770263671875,-1.5287702407240866,8.267406296056508,3.1148744800418613
1704279021160745200,5.8467451171875,-1.333331839776039,8.519466163414716,3.1790210812598465
1704279021170719200,5.85671923828125,-1.1474713414471596,8.76951878260374,3.2487183023422954
1704279021180694300,5.8666943359375,-0.9840320068281143,9.030162938433884,3.3036089994370936
1704279021190668300,5.876668212890625,-0.8509738550126552,9.259590702745317,3.367655062890053
1704279021200643300,5.886643310546875,-0.7576081735730171,9.479661440646648,3.447112630486488
1704279021210617300,5.896617431640625,-0.6801894183278083,9.662758246415853,3.576885842347145
1704279021220592400,5.90659228515625,-0.6162310331583023,9.758901575875282,3.7596664217740297
1704279021230566100,5.916566162109375,-0.554809472990036,9.786542446994781,3.9791941388398406
1704279021240541200,5.926541259765625,-0.5063491377362981,9.75888520926237,4.2132320272952315
1704279021250516200,5.93651611328125,-0.4343301591753959,9.694375035429001,4.401212513452768
1704279021260490200,5.946490234375,-0.3426350412964821,9.70743150087893,4.475687616461515
1704279021270465000,5.956465087890625,-0.2637999895125627,9.793640880823135,4.383112208616733
1704279021280439000,5.96643896484375,-0.17389349034978077,9.981723658311367,3.9830011299073695
1704279021290414300,5.976414306640625,-0.04124326174808666,10.219401949095726,3.28224297080338
1704279021300388400,5.986388427734375,0.14313830486834048,10.490087021946906,2.5294191088974474
1704279021310363400,5.99636328125,0.3510095229426399,10.686839428102969,1.9445178645044563
1704279021320337400,6.00633740234375,0.567243422627449,10.72039098457098,1.5277496655046938
1704279021330312200,6.016312255859375,0.6852437791079282,10.503311245179177,1.295444299930334
1704279021340286200,6.0262861328125,0.7271183427631854,10.121559999024868,1.3640098866343497
1704279021350261200,6.03626123046875,0.6899871742427348,9.578009586673975,1.5639216336041688
1704279021360235300,6.0462353515625,0.5521148270785808,9.017332682955265,1.607711675491929
1704279021370210000,6.0562099609375,0.2583025611400604,8.556149003645777,1.2883569720178842
1704279021380184000,6.06618408203125,-0.14761515802145003,8.136271148192883,0.5623994897276163
1704279021390159400,6.076159423828125,-0.5153484002172947,7.82495069809258,-0.3978074779421091
1704279021400133400,6.08613330078125,-0.779457017287612,7.6362775534957645,-1.439879658871889
1704279021410108400,6.0961083984375,-0.8412398119837046,7.515929172584414,-2.394631868267059
1704279021420082400,6.10608251953125,-0.7702408606529235,7.373659467244148,-3.257033710744977
1704279021430057200,6.11605712890625,-0.561689295631647,7.165941430437565,-3.941781815290451
1704279021440031200,6.12603125,-0.1541308235257864,6.9252721411436795,-4.598990755525231
1704279021450006300,6.13600634765625,0.35795130490455773,6.597201047250628,-5.338199349054694
1704279021459980300,6.145980224609375,0.8520400960046798,6.1865416865199805,-6.117008716088533
1704279021469955300,6.155955322265625,1.2430442506074906,5.6696635925173755,-6.718788614568114
1704279021479929000,6.16592919921875,1.519623642194271,5.096162278538942,-7.1042024748831984
1704279021489904000,6.175904052734375,1.725581683591008,4.474816386584937,-7.256867317509651
1704279021499878100,6.185878173828125,1.7469816144943235,3.8797052983447906,-7.109082648140191
1704279021509853400,6.195853515625,1.8574726182579993,3.351633610154688,-7.334847798290848
1704279021519827500,6.205827392578125,1.4616963538825511,2.9737197502061723,-6.962565222227573
1704279021529802200,6.21580224609375,0.9902256738364696,2.484939331179857,-6.733978584915399
1704279021539776300,6.2257763671875,0.342647827712819,2.016405873629451,-6.512101674374938
1704279021549751300,6.235751220703125,-0.31009353865385053,1.6337357590645551,-6.266897664260864
1704279021559725300,6.245725341796875,-0.9590203882336616,1.2515186489641665,-6.135003222462535
1704279021569700400,6.255700439453125,-1.5427800613760947,0.8137444868147373,-6.030933776178956
1704279021579674400,6.26567431640625,-2.047586024791002,0.38326924950182434,-5.9280772128164765
1704279021589649200,6.275649169921875,-2.500424485081434,-0.06888122852444649,-5.878631921645999
1704279021599623200,6.285623046875,-2.888746926319599,-0.5428782121777534,-5.948705574825405
1704279021609598200,6.29559814453125,-3.1908243317782876,-0.9960147786319256,-6.145674254080653
1704279021619572200,6.305572265625,-3.419064932131767,-1.4815432101249695,-6.323462432047724
1704279021629547300,6.31554736328125,-3.526683595329523,-1.9326047238707542,-6.518451335662603
1704279021639521300,6.325521240234375,-3.6260967402398583,-2.3459119687616825,-6.673560064309835
1704279021649496300,6.335496337890625,-3.7311528594732284,-2.765048650458455,-6.742692637246847
1704279021659470300,6.34547021484375,-3.7840532595336436,-3.2397529055982828,-6.778168439775705
1704279021669445400,6.3554453125,-3.765781105262041,-3.7210879770547147,-6.800442815425992
1704279021679419400,6.36541943359375,-3.7018531152307985,-4.189638385739922,-6.682807785126567
1704279021689394200,6.375394287109375,-3.6145571090936657,-4.593616661271453,-6.60933864428997
1704279021699368200,6.3853681640625,-3.524292316278815,-4.951598324781656,-6.579793400853872
1704279021709343200,6.39534326171875,-3.3839562093496323,-5.294415152385831,-6.583502776765823
1704279021719318300,6.405318359375,-3.2481238435804842,-5.645996885725856,-6.6448933572739355
1704279021729292000,6.4152919921875,-3.1658184853374958,-5.990610533618927,-6.686037268567085
1704279021739267300,6.425267333984375,-3.0896167046666143,-6.3357362226873635,-6.719252140426636
1704279021749241300,6.435241455078125,-3.0100623986974355,-6.634147506853938,-6.747706666016578
1704279021759216400,6.44521630859375,-2.9577041426897046,-6.906538799101114,-6.718689830368757
1704279021769190400,6.4551904296875,-2.9502804224297403,-7.122578674051165,-6.676280429184437
1704279021779165200,6.465165283203125,-3.004586305373907,-7.253867551171779,-6.65014411740899
1704279021789139200,6.47513916015625,-3.106557610334456,-7.278935941454768,-6.678738928252458
1704279021799114200,6.4851142578125,-3.2460286248669026,-7.220285015043616,-6.7812605605721465
1704279021809088300,6.495088134765625,-3.333647287087142,-7.068627303633093,-6.988591643887758
1704279021819063300,6.505063232421875,-3.3404712878882883,-6.84860157391727,-7.161895369917154
1704279021829037300,6.515037353515625,-3.255453748077154,-6.649450289925933,-7.334550276648998
1704279021839012400,6.525012451171875,-3.132531132763624,-6.516835717159509,-7.55961516957581
1704279021848986400,6.534986328125,-2.9978277710244057,-6.418126921126246,-7.755095071578025
1704279021858961400,6.54496142578125,-2.8138848698198795,-6.369954134109616,-7.869033585447072
1704279021868935400,6.554935302734375,-2.601094352054596,-6.449136976417899,-7.925386756309867
1704279021878910200,6.56491015625,-2.4189511937484145,-6.588640139654278,-8.0512676369071
1704279021888884200,6.57488427734375,-2.264306867742538,-6.519678247109055,-8.391154840800166
1704279021898859300,6.584859375,-2.2010333960972726,-6.0196326299637555,-9.021804275411366
1704279021908833300,6.594833251953125,-2.2617492922142146,-5.254770539739727,-9.714549808451533
1704279021918808300,6.604808349609375,-2.3100679174423218,-4.495606368896365,-10.28420438387394
1704279021928782300,6.6147822265625,-2.3858394900023936,-3.8963767394214868,-10.572785178899764
1704279021938757000,6.624757080078125,-2.4711995596408842,-3.5457144590139387,-10.418441004884242
1704279021948731100,6.634731201171875,-2.5343665021717547,-3.449934702169895,-9.81798855561614
1704279021958706400,6.64470654296875,-2.460935355257988,-3.524173658335209,-8.977870441138744
1704279021968680400,6.654680419921875,-2.238303826957941,-3.61193845102787,-8.210821654525398
1704279021978655200,6.6646552734375,-1.9771067134201525,-3.6296219917565584,-7.5552967218548055
1704279021988629200,6.674629150390625,-1.7041840907752512,-3.5054292103767395,-6.964167396727204
1704279021998604300,6.684604248046875,-1.4114637117266655,-3.1832103496432302,-6.593900836661458
1704279022008578300,6.694578369140625,-1.1093336262326687,-2.6261919684320687,-6.531961974620819
1704279022018553300,6.70455322265625,-0.8388076164007187,-1.8362515510529278,-6.742135003364086
1704279022028527400,6.71452734375,-0.6367255396544933,-0.9282914879709482,-7.1898109663248055
1704279022038502100,6.724502197265625,-0.5627344207704067,0.05528992554545402,-7.772866290590167
1704279022048476200,6.73447607421875,-0.6281389130949974,1.097863626256585,-8.244581300786137
1704279022058451200,6.744451171875,-0.7256231357693672,2.0986866819530725,-8.51539263036549
1704279022068425200,6.75442529296875,-0.8024152835488318,3.1239889298677443,-8.634981717342137
1704279022078400300,6.764400146484375,-0.9189163413822651,4.080943617743253,-8.534574300697445
1704279022088374300,6.774374267578125,-1.0589140101373196,4.82130196582973,-8.246258294087648
1704279022098349300,6.784349365234375,-1.261021805846691,5.405497692301869,-7.848035221081972
1704279022108324400,6.794324462890625,-1.485195302891731,5.884993273371458,-7.41770611424148
1704279022118298400,6.80429833984375,-1.62246208537817,6.316034327873587,-6.918002442401647
1704279022128273200,6.814273193359375,-1.698882477235794,6.618758799064159,-6.332621890059113
1704279022138247200,6.8242470703125,-1.6912322547435759,6.83276570688188,-5.65848461137712
1704279022148222200,6.83422216796875,-1.6688193474054336,6.963846494209766,-4.946020232388377
1704279022158196200,6.8441962890625,-1.6229741265535353,7.017720707738399,-4.262589640182257
1704279022168171300,6.854171142578125,-1.5439502741992472,7.081126135200262,-3.6688755592584608
1704279022178145300,6.864145263671875,-1.4668822320878505,7.166880757114291,-3.1794168025791643
1704279022188120300,6.874120361328125,-1.357879421055317,7.295918055915832,-2.74366625521183
1704279022198094300,6.88409423828125,-1.2805612035751341,7.453375393515825,-2.347467966032028
1704279022208069400,6.8940693359375,-1.211192483794689,7.625406615391373,-1.9978847130328417
1704279022218043400,6.90404345703125,-1.2014321372807024,7.8055743819713586,-1.6680249821573494
1704279022228018200,6.91401806640625,-1.2346025854766367,7.955763774394988,-1.3185662323206662
1704279022237992200,6.9239921875,-1.2381693380475043,8.0590832790941,-0.9322890331745147
1704279022247967200,6.93396728515625,-1.2096961077570914,8.06760619276762,-0.46482875781357286
1704279022257941200,6.943941162109375,-1.2832125948667525,8.097287629804015,-0.10142974542975425
1704279022267916300,6.953916259765625,-1.3511644335865973,8.117813700482248,0.2613005739122629
1704279022277890300,6.963890380859375,-1.3940531427204608,8.217206971648334,0.45931846995949743
1704279022287865900,6.973865966796875,-1.4990449645459651,8.417691550070048,0.6631950289070606
1704279022297839900,6.98383984375,-1.6096411822497845,8.616017489153146,0.9591337854802608
1704279022307815200,6.993815185546875,-1.6753893734455108,8.686773863899708,1.3328782507896422
1704279022317789200,7.0037890625,-1.6917571554005144,8.670882467284798,1.7548685683518648
1704279022327764000,7.013763916015625,-1.6966121942162513,8.610904676184058,2.1694430566996337
1704279022337738000,7.023738037109375,-1.6700655480742455,8.542841193783282,2.552305478966236
1704279022347713000,7.033713134765625,-1.5993629493415356,8.5085683373034,2.864938180708885
1704279022357687000,7.04368701171875,-1.474327871918678,8.527290573430061,3.0883868706107136
1704279022367662000,7.053662109375,-1.3525941741287708,8.622795604985951,3.2200989415794607
1704279022377635800,7.0636357421875,-1.2364648722171783,8.811620725274086,3.2879631020158526
1704279022387611000,7.07361083984375,-1.099593299593404,9.013957653564214,3.308663944739103
1704279022397585000,7.0835849609375,-0.9973170934021472,9.215082283455132,3.3197967486500737
1704279022407560000,7.093559814453125,-0.9041174161791801,9.446588023084402,3.329830066886544
1704279022417535000,7.103534912109375,-0.8125742739915848,9.722539638161658,3.3499411270231008
1704279022427509000,7.113509033203125,-0.7369359724223613,10.024085128700733,3.3891590386897326
1704279022437484000,7.123484130859375,-0.6485796435773372,10.320050773280858,3.542725798591971
1704279022447458000,7.1334580078125,-0.581497573429346,10.48498882202506,3.821484872305393
1704279022457433000,7.14343310546875,-0.5211843032965436,10.480113909465073,4.250775283747911
1704279022467407000,7.153406982421875,-0.4235398850917816,10.34227780265808,4.756207270106673
1704279022477382000,7.1633818359375,-0.3020715785061009,10.190229630625247,5.208851669129729
1704279022487356000,7.17335595703125,-0.15161445679068564,10.140476296418905,5.5590194440186025
1704279022497331000,7.1833310546875,-0.046777533265948294,10.161357756406069,5.737490928074717
1704279022507305000,7.193304931640625,0.022968787655234336,10.316982033360004,5.608983790627121
1704279022517279700,7.20327978515625,0.1124205105215311,10.638151092779635,5.1102211990296835
1704279022527253800,7.213253662109375,0.25571137560307977,10.997674140512943,4.4558349150002
1704279022537229000,7.22322900390625,0.4447112314036116,11.273722786223887,3.7935610925912853
1704279022547203000,7.233203125,0.6753565913438797,11.284677895480394,3.1427392230451106
1704279022557178000,7.24317822265625,0.8915484419852495,10.994873111617565,2.6315467734634876
1704279022567152000,7.253152099609375,1.0267992084741593,10.563459716671705,2.2761019349545237
1704279022577127000,7.263126953125,1.0315578011780977,10.181136808109283,1.9494938993513582
1704279022587101000,7.273100830078125,0.8992226298749446,9.721688574290274,1.635114061680436
1704279022597076000,7.283075927734375,0.6825333511054515,9.225542302671075,1.1769067678332328
1704279022607050000,7.293050048828125,0.3174292883694172,8.742887965309619,0.5731207902282476
1704279022617025000,7.30302490234375,-0.11299217292964457,8.313293017962575,-0.1531336291819811
1704279022626998800,7.312998779296875,-0.443791230481863,7.932156104314327,-1.0091793806314469
1704279022636974000,7.32297412109375,-0.6379577117979526,7.671274632596969,-1.9491227279514074
1704279022646947800,7.33294775390625,-0.7308820792108773,7.529975818115473,-2.940194789484143
1704279022656923100,7.342923095703125,-0.647308308467269,7.381327225393057,-3.8731419943064447
1704279022666897200,7.352897216796875,-0.34895902015361935,7.217906010952592,-4.735333993425965
1704279022676872000,7.362871826171875,0.0895370265295729,7.001971934464573,-5.558655871403217
1704279022686846000,7.372845947265625,0.5612146638572215,6.739644355592131,-6.253299347019195
1704279022696821000,7.382821044921875,1.0030249496549368,6.36601153396368,-6.809161543932556
1704279022706795000,7.392794921875,1.4036118291825055,5.864036410060525,-7.164302431058883
1704279022716770000,7.40277001953125,1.625418012574315,5.261220738792419,-7.336055420514941
1704279022726744800,7.412744873046875,1.5957517731070519,4.712470127449929,-7.426210323214531
1704279022736718800,7.42271875,1.3077625142335891,4.197753887656331,-7.50075556885004
1704279022746694100,7.432694091796875,0.8030056506574154,3.5609488530248403,-7.457448342043161
1704279022756668200,7.442668212890625,0.1836498000094667,2.9102310283750294,-7.3734274120539425
1704279022766643000,7.452642822265625,-0.5484965635161847,2.3117601083129644,-7.237285249683261
1704279022776617000,7.462616943359375,-1.2475170121073722,1.7268997804522512,-6.999427510678768
1704279022786592000,7.472592041015625,-1.8787983148813248,1.149600827756524,-6.778080176970362
1704279022796566000,7.48256591796875,-2.40546539697051,0.5486375063568353,-6.574882832458615
1704279022806541000,7.492541015625,-2.815235115385055,0.018310732716321942,-6.371008611598611
1704279022816515000,7.50251513671875,-3.141535107952356,-0.5057271699130534,-6.202738788083195
1704279022826489900,7.51248974609375,-3.3822727863073347,-1.039205685582757,-6.024550212621689
1704279022836463900,7.5224638671875,-3.41937706682086,-1.514959157514572,-5.96479161722958
1704279022846439000,7.53243896484375,-3.3322555404677985,-1.9104238717228172,-5.977472235104441
1704279022856413000,7.542412841796875,-3.115438543665409,-2.2821675186038015,-6.057435414135456
1704279022866388000,7.552387939453125,-2.8424799729242918,-2.6086995663613077,-6.2003673827767365
1704279022876362000,7.562362060546875,-2.611767721760273,-2.8961329449176785,-6.288470029121637
1704279022886337000,7.5723369140625,-2.354560554641485,-3.178130269899964,-6.37405046351254
1704279022896311000,7.58231103515625,-2.158181073451042,-3.459798509058356,-6.362583313080668
1704279022906286000,7.5922861328125,-2.0312861935056743,-3.7753339465051887,-6.310206644633412
1704279022916260000,7.602260009765625,-1.9403638135649264,-4.109326247140765,-6.257585646036267
1704279022926235000,7.61223486328125,-1.8596166445493698,-4.463412656778097,-6.189398244994878
1704279022936209000,7.622208984375,-1.8292660760797559,-4.7909226096570485,-6.1249284031718965
1704279022946184000,7.632183837890625,-1.8281062385201452,-5.0748365819156165,-6.075826226350665
1704279022956158000,7.642157958984375,-1.8680198773659764,-5.339873419746756,-5.970168634092808
1704279022966133000,7.652133056640625,-1.9358501355327664,-5.624055687552691,-5.808529042372107
1704279022976108000,7.66210791015625,-2.017318604560196,-5.925016656202078,-5.636185101285577
1704279022986082000,7.67208203125,-2.0991760729052125,-6.207550572279096,-5.478229166513681
1704279022996057000,7.68205712890625,-2.1994868973076342,-6.465152876195311,-5.363778611469268
1704279023006031000,7.692031005859375,-2.281370230746269,-6.657084145805239,-5.333676318672299
1704279023016006000,7.702005859375,-2.325092321964353,-6.7544333439230915,-5.410782354706526
1704279023025980000,7.71197998046875,-2.341055760902166,-6.753766404446959,-5.585555568766593
1704279023035955000,7.721954833984375,-2.3165493884161115,-6.665428195780516,-5.814953522461653
1704279023045929000,7.731928955078125,-2.2470340997718274,-6.489992133897543,-6.0525850514948365
1704279023055904000,7.741904052734375,-2.1124457427144048,-6.292785554233193,-6.297254224079847
1704279023065878000,7.7518779296875,-1.9695884467445313,-6.130472593295574,-6.571324847716093
1704279023075852800,7.761852783203125,-1.814168752451986,-5.987969663721323,-6.816511322173476
1704279023085826800,7.771826904296875,-1.6416951936364172,-5.836503675490618,-7.046265249699354
1704279023095802000,7.781802001953125,-1.4669910992898045,-5.754972224229574,-7.317832950603962
1704279023105776000,7.791776123046875,-1.4243196861684322,-5.71689529929161,-7.701343607646226
1704279023115751000,7.8017509765625,-1.5344962171554564,-5.613980868262052,-8.168962288439273
1704279023125725000,7.811724853515625,-1.573918857613951,-5.307334839713573,-8.721378728812933
1704279023135700000,7.821699951171875,-1.6814556877471505,-4.791545709991455,-9.290727599287033
1704279023145674000,7.831674072265625,-1.8692307144604623,-4.279584614124894,-9.688860655921697
1704279023155649000,7.84164892578125,-2.1041981388509274,-3.901694719573855,-9.786009363031386
1704279023165623000,7.851623046875,-2.376044072175026,-3.6361750666618344,-9.628497664895653
1704279023175597800,7.861597900390625,-2.6185925993442534,-3.4819998194724318,-9.18597484691441
1704279023185571800,7.87157177734375,-2.757118734242022,-3.4989012699127193,-8.475814653214812
1704279023195547000,7.881546875,-2.717043621224165,-3.592316051191091,-7.59512545889616
1704279023205521000,7.89152099609375,-2.5270611475944516,-3.609318039396405,-6.834812702539563
1704279023215496000,7.901495849609375,-2.2300948015391824,-3.42347924144268,-6.4433303359657526
1704279023225471000,7.911470947265625,-1.907617582130432,-3.10264219045639,-6.296825185012817
1704279023235445000,7.921445068359375,-1.5922423036813735,-2.6069980231404304,-6.326969563385844
1704279023245420000,7.931419921875,-1.291261461287737,-2.025645995661616,-6.447706651353836
1704279023255394000,7.94139404296875,-0.9658055183291435,-1.3932599465161561,-6.543032234689593
1704279023265368800,7.951368896484375,-0.668158788794279,-0.7662848165035248,-6.5835588908672324
1704279023275342800,7.9613427734375,-0.4644412198007106,-0.13349778534173964,-6.577556435582041
1704279023285318000,7.97131787109375,-0.2895592846691608,0.4986334122598171,-6.513816077077388
1704279023295291600,7.981291748046875,-0.17855390164256094,1.1404203269571065,-6.400567299038172
1704279023305266700,7.9912666015625,-0.13907120155990124,1.784226764783263,-6.279321092504262
1704279023315240700,8.00124072265625,-0.16716741523146628,2.4378677834033966,-6.194239255285263
1704279023325215500,8.011215576171875,-0.23861527937352656,3.0886668565958737,-6.046883040460944
1704279023335189500,8.021189453125,-0.28758067807257176,3.619187691503763,-5.8978486632913345
1704279023345164500,8.03116455078125,-0.3888017491877079,4.106847289806604,-5.739665934026241
1704279023355138600,8.041138671875,-0.5694353797137737,4.557070014640689,-5.531490801101922
1704279023365113600,8.051113525390624,-0.6514344484865665,4.974384157085418,-5.257301519522071
1704279023375087600,8.061087646484374,-0.6657739394843578,5.397354717856645,-4.9080216333836315
1704279023385062700,8.071062744140624,-0.6678221041858196,5.719551366758346,-4.4521214474350215
1704279023395036700,8.08103662109375,-0.6938333282768726,5.894955864459276,-3.8733050759136676
1704279023405011700,8.09101171875,-0.7865981212139129,6.018288814139366,-3.363728829357028
1704279023414985700,8.10098583984375,-0.9793103120684623,6.134803900498151,-2.950623829039931
1704279023424960500,8.11096044921875,-1.2053075174093246,6.297386910548806,-2.6371827335238454
1704279023434934500,8.1209345703125,-1.4697954891860485,6.511461038383841,-2.3791817856788633
1704279023444909600,8.13090966796875,-1.693678040460497,6.779992732593417,-2.090422126954794
1704279023454884600,8.140884521484375,-1.8616484426379203,7.0283940774440765,-1.7346096241772173
1704279023464858600,8.150858642578125,-1.9932056153059003,7.245225395032763,-1.3133750934183597
1704279023474833400,8.16083349609375,-2.0533084940910338,7.436794845592975,-0.9068792821079492
1704279023484807400,8.170807373046875,-2.0490718794345852,7.590612949907779,-0.47167526270747184
1704279023494782700,8.18078271484375,-2.025168441277742,7.721465773698687,-0.0590291120737791
1704279023504756700,8.1907568359375,-2.0589353940621016,7.819446255457401,0.3483247773706913
1704279023514731500,8.2007314453125,-2.035909615522623,7.823712096208333,0.744653999453783
1704279023524705500,8.21070556640625,-2.0255973342142997,7.801706600627303,1.1451625530481337
1704279023534680600,8.2206806640625,-2.010162595325708,7.769400660306215,1.5280717370659112
1704279023544654600,8.230654541015625,-1.9957799958385527,7.703702737993002,1.8621324267625807
1704279023554629600,8.240629638671875,-1.9934838477253913,7.6168667505830525,2.168496715760231
1704279023564603600,8.250603759765625,-1.9883716192781924,7.52746120494604,2.4813714095652104
1704279023574578400,8.260578369140624,-1.9503741893172264,7.468088978523015,2.7668419636160135
1704279023584552400,8.270552490234374,-1.8063176005601882,7.495761998346447,3.0038217507421967
1704279023594527700,8.28052783203125,-1.6358885531842708,7.613632006445527,3.197931533434987
1704279023604501500,8.29050146484375,-1.4878922868907452,7.820389673787355,3.3746512053877114
1704279023614476800,8.300476806640624,-1.3567068701446054,8.063929550081491,3.543901272112131
1704279023624450600,8.310450439453126,-1.2439900070250034,8.289791730865836,3.662134852826595
1704279023634425600,8.320425537109376,-1.1753367420375347,8.525397891551256,3.711634504532814
1704279023644399600,8.330399658203126,-1.1027775556527077,8.854684206452966,3.7219670979768034
1704279023654374700,8.340374755859376,-0.9735282215356826,9.268391848838329,3.742729315498471
1704279023664348700,8.3503486328125,-0.8294681256473064,9.664228903490304,3.8158909978210924
1704279023674323500,8.360323486328125,-0.6996855614364147,9.957925434094667,3.9570477734833953
1704279023684298500,8.370298583984376,-0.5905319437563419,10.071977345210314,4.248548255348205
1704279023694272500,8.3802724609375,-0.45182139220237727,9.984297892713546,4.661162841799855
1704279023704247800,8.390247802734375,-0.2514157242357731,9.776075413516164,5.1028275816470385
1704279023714221800,8.400221923828125,-0.05440027866277378,9.58821767695546,5.476825144934654
1704279023724196600,8.410196533203125,0.04333236124813557,9.444173947679996,5.665109582474828
1704279023734170600,8.420170654296875,0.10291559094018302,9.370902959764003,5.646101515144109
1704279023744145700,8.430145751953125,0.1421855524544604,9.490507828831673,5.250089688447117
1704279023754119700,8.44011962890625,0.24082011420773342,9.756812494641542,4.581341117066144
1704279023764094500,8.450094482421875,0.38615269598364826,9.948505279320479,3.990847751754522
1704279023774068500,8.460068359375,0.5349568080613389,10.038381365078687,3.5730788512796163
1704279023784043500,8.47004345703125,0.6506611260265112,10.018937828940153,3.2463445589482784
1704279023794017500,8.480017578125,0.7140303131312131,9.868253930997849,3.0375545089960094
1704279023803992600,8.48999267578125,0.7125824524104595,9.58066506961882,2.8364281255394217
1704279023813966600,8.499966552734374,0.6340338163524866,9.125728760266304,2.5631851848989724
1704279023823941600,8.509941650390624,0.5201888990510255,8.6760625002712,2.2585224391222
1704279023833915600,8.51991552734375,0.30205464563760903,8.241392733877897,1.880066142860055
1704279023843890700,8.529890625,0.047988114632107316,7.78589645255506,1.3977367996692656
1704279023853864700,8.53986474609375,-0.1565658686529845,7.343039288052916,0.7810761429220437
1704279023863839700,8.54983984375,-0.31057339459266514,7.031992978718876,0.025223873105645177
1704279023873814500,8.559814453125,-0.37635903172194957,6.788842394003272,-0.8095049495488404
1704279023883788500,8.56978857421875,-0.34703123042881484,6.64359864128828,-1.769640605548024
1704279023893763600,8.579763671875,-0.1901928649773821,6.5201359277486794,-2.760803852495551
1704279023903737600,8.589737548828126,0.07499770211074501,6.45045858041048,-3.770945356157422
1704279023913712400,8.59971240234375,0.405426136252284,6.471851497051119,-4.792880757987499
1704279023923686400,8.609686279296875,0.7697504467874765,6.427151354581118,-5.6309986385583874
1704279023933661700,8.61966162109375,1.1269108570426702,6.211636964809895,-6.236164087823033
1704279023943635700,8.6296357421875,1.3782511779546738,5.878719015407562,-6.664461396574974
1704279023953610800,8.63961083984375,1.4350924245953558,5.474560707134008,-6.97823683861196
1704279023963584800,8.649584716796875,1.2953998762667178,5.125028307539225,-7.152383445206284
1704279023973559600,8.6595595703125,0.9289654417097568,4.801740940791368,-7.123648349109292
1704279023983533600,8.669533447265625,0.4417828132688999,4.415204213926196,-7.103292374300956
1704279023993508600,8.679508544921875,-0.18996026179790496,4.033441277334094,-7.048576449251175
1704279024003482600,8.689482666015625,-0.9906254868090152,3.5356022303223607,-6.716088123437762
1704279024013457700,8.699457763671875,-1.7540028914332388,2.868151882058382,-6.420858976438641
1704279024023431400,8.709431396484375,-2.5230945820510384,2.160868705099821,-6.07156447725296
1704279024033406500,8.719406494140625,-3.2154128295898436,1.4231220008164644,-5.7375715920954935
1704279024043380500,8.72938037109375,-3.723827631151676,0.63124856954813,-5.421667321336269
1704279024053355800,8.739355712890625,-4.0015059238910675,-0.18068039227724075,-5.245398900282383
1704279024063329800,8.749329833984374,-4.070011889362335,-0.8590297356963157,-5.312503766784071
1704279024073304600,8.7593046875,-3.919689225947857,-1.398320152515173,-5.550670133346319
1704279024083279600,8.769279541015624,-3.59123702378273,-1.8632278207838535,-5.861422428169846
1704279024093253600,8.779253662109374,-3.139586311972141,-2.307096208155155,-6.1319309754103415
1704279024103228700,8.789228759765624,-2.7118612501502035,-2.7175311124801635,-6.3121753143578765
1704279024113202700,8.79920263671875,-2.420892098683119,-3.0736949129134414,-6.386987101975083
1704279024123177500,8.809177490234376,-2.1645981008864936,-3.4001638323068617,-6.56622080257535
1704279024133151500,8.8191513671875,-1.9714884351469575,-3.6757448605060574,-6.784515762975811
1704279024143126500,8.82912646484375,-1.8001649231493473,-3.9460137537717817,-6.960593045371771
1704279024153100500,8.8391005859375,-1.6811188570082187,-4.207048954746127,-7.081545821917056
1704279024163075600,8.84907568359375,-1.5872387963056562,-4.505169147011637,-7.136839839115739
1704279024173049600,8.859049560546875,-1.4861667782723902,-4.836145314696431,-7.129024196928739
1704279024183024600,8.869024658203125,-1.454982535457611,-5.124096579647064,-7.020493679583073
1704279024192998700,8.87899853515625,-1.482182823202759,-5.4296840390533205,-6.816197433918714
1704279024202973700,8.8889736328125,-1.5459413018859922,-5.737451180586218,-6.58211044562459
1704279024212947700,8.89894775390625,-1.656200834981352,-5.97503127169311,-6.402871484327316
1704279024222922500,8.908922607421875,-1.880381200158596,-6.174742527654766,-6.286275733947754
1704279024232896500,8.918896484375,-2.1236766001723706,-6.358724884086847,-6.241779589617252
1704279024242871600,8.92887158203125,-2.358521421096474,-6.5365604083269835,-6.239847160249949
1704279024252845600,8.938845458984375,-2.5169594402968882,-6.684763010847568,-6.2527598333150145
1704279024262820600,8.948820556640625,-2.5965947025477885,-6.782832924455404,-6.3826657316446305
1704279024272795600,8.958795654296875,-2.6417875969707962,-6.829425748804211,-6.63529959949851
1704279024282769700,8.968769775390625,-2.644705530244112,-6.778667621469498,-6.978913130438327
1704279024292744000,8.978743896484374,-2.544377024054527,-6.7099588269025086,-7.2747700539469715
1704279024302718000,8.988718017578124,-2.3313785626269876,-6.687747579616308,-7.442050866425037
1704279024312693000,8.99869287109375,-2.0632044496834276,-6.599732027032971,-7.561786668395996
1704279024322667000,9.0086669921875,-1.7662848653793335,-6.4349933002531525,-7.662937012362479
1704279024332642000,9.01864208984375,-1.4835516273379326,-6.260370308318734,-7.733892124551534
1704279024342616000,9.028615966796876,-1.235867636976391,-6.083755265784263,-7.789747867286205
1704279024352591000,9.038591064453126,-1.0258872081957757,-5.824126424476504,-7.919204268282652
1704279024362565000,9.048565185546876,-0.9584371815182268,-5.350127102735638,-8.237457732516527
1704279024372540000,9.058539794921876,-1.0659726964771747,-4.625948320555687,-8.636026842480897
1704279024382514000,9.068513916015625,-1.2993360466718673,-3.909311039796471,-8.912852317783235
1704279024392489000,9.078489013671875,-1.5426105500280856,-3.3081618404358624,-9.014551527804135
1704279024402463000,9.088462890625,-1.7198983772575853,-2.7454525541067123,-8.947449583911895
1704279024412438000,9.09843798828125,-1.8710395174480974,-2.129126243880391,-8.81095846197307
1704279024422412000,9.108412109375,-2.0847195313990117,-1.7105828519016504,-8.373495849990844
1704279024432386800,9.11838671875,-2.323191602909565,-1.6412614783942698,-7.632513817048072
1704279024442360800,9.12836083984375,-2.5095886192679404,-1.8057482762396335,-6.6913020572274915
1704279024452336000,9.138336181640625,-2.5772411827802655,-1.980190650910139,-5.780781788268685
1704279024462311000,9.148310791015625,-2.4673534056067465,-1.9883780490189789,-5.041962486317754
1704279024472285000,9.158284912109375,-2.305486434870958,-1.831922581937909,-4.519132790434361
1704279024482260000,9.168260009765625,-2.0704525211155413,-1.5271575448304413,-4.356943748137355
1704279024492234000,9.17823388671875,-1.8644553167521953,-1.091295353782177,-4.510943638759851
1704279024502209000,9.188208984375,-1.764864477187395,-0.5128811333209276,-4.8315690928220745
1704279024512183000,9.19818310546875,-1.6215478931427,0.09363573055267334,-5.123126273310184
1704279024522157800,9.20815771484375,-1.42932202450037,0.6326327173829078,-5.35461856893599
1704279024532131800,9.2181318359375,-1.250005321791768,1.193532908463478,-5.5411698990732425
1704279024542107000,9.22810693359375,-1.1711550724387167,1.795540185958147,-5.762665116819739
1704279024552081000,9.238080810546874,-1.2510147910952567,2.337471472674608,-6.035838499355316
1704279024562056200,9.24805615234375,-1.444491536581516,2.9289199467539784,-6.341272814026475
1704279024572030000,9.258030029296876,-1.6882149527490138,3.532985325822234,-6.571783697399496
1704279024582005000,9.2680048828125,-1.9490379722774027,3.9800785204589366,-6.4957777315616605
1704279024591979000,9.27797900390625,-2.2265368167966604,4.529451939874887,-6.404482426655292
1704279024601954000,9.2879541015625,-2.472393737861514,4.842166766943037,-6.238180103820562
1704279024611928000,9.297927978515625,-2.711521058410406,4.850407941065728,-5.894595798975229
1704279024621902800,9.30790283203125,-2.873897732234001,4.931524674046039,-5.48736933530271
1704279024631876900,9.317876953125,-2.869723661419749,5.194986809906363,-5.170293098154664
1704279024641852000,9.327851806640625,-2.6924323270589112,5.44268439040184,-4.848931146511435
1704279024651827200,9.3378271484375,-2.425520927527547,5.622548205599188,-4.4801533636987205
1704279024661801000,9.347801025390625,-2.0863047547638414,5.843946392711997,-4.1451878341168165
1704279024671776000,9.35777587890625,-1.7594424521386622,6.127893682718277,-3.8321424599200484
1704279024681750000,9.36775,-1.4530647191375494,6.447607282632589,-3.5675720705568787
1704279024691725000,9.37772509765625,-1.1891384728968142,6.806331873464584,-3.260653654807806
1704279024701699000,9.387698974609375,-0.9883172098666428,7.170496025002002,-2.8426035993039607
1704279024711673900,9.397673828125,-0.7145680732697248,7.441217338210344,-2.3710376421898602
1704279024721647900,9.40764794921875,-0.4298492143690586,7.6919123469561335,-1.8005413552463054
1704279024731623000,9.417622802734375,-0.22847440910935402,7.9853107713967555,-1.2495739446371792
1704279024741597000,9.427596923828125,-0.09691964759416878,8.166869115552306,-0.650881490778923
1704279024751572000,9.437572021484375,0.026351342765614388,8.261382213461399,-0.0299111541390419
1704279024761546000,9.4475458984375,0.06933715559840202,8.347370644131303,0.5445931994020938
1704279024771521000,9.45752099609375,0.0702922643661499,8.439124798721075,1.0314935037702322
1704279024781495000,9.4674951171875,0.0594382043313235,8.502868079835176,1.4617460382431744
1704279024791470000,9.477469970703124,0.028894670572876927,8.578343884319066,1.8459329871118069
1704279024801444000,9.487444091796876,0.009067030487582088,8.573205936908721,2.3581197084277865
1704279024811419100,9.497419189453124,0.02597505679912865,8.49355547708869,2.8298920017689464
1704279024821394000,9.507393798828126,0.03428922309279442,8.45836082958877,3.216012549048662
1704279024831368000,9.517367919921876,0.0586895048558712,8.504111357894539,3.5060230846166607
1704279024841343000,9.527343017578126,0.1608871659182012,8.625691326427459,3.7547844949513673
1704279024851317000,9.53731689453125,0.2998428513396531,8.8119316909194,3.93033161599338
1704279024861291800,9.547291748046876,0.44785080807097255,9.011588001823425,4.074246750453114
1704279024871265800,9.557265869140625,0.6470441045731306,9.25257293293774,4.2144010710746045
1704279024881241000,9.567240966796875,0.8119565074194223,9.495220244306326,4.346196144151687
1704279024891215000,9.577215087890625,0.9335077613145113,9.754080439329147,4.442229583495855
1704279024901190100,9.587190185546875,0.9652063833922148,9.97556162855029,4.540208311688899
1704279024911164200,9.5971640625,0.9150427878845483,10.116029252904653,4.690111288386583
1704279024921139000,9.607138916015625,0.8582196614224463,10.149583147460222,4.897303840014338
1704279024931113000,9.617113037109375,0.7869961806207895,10.053432803738117,5.198302218064666
1704279024941088000,9.627087890625,0.7406623725343495,9.847181916874646,5.485647918337583
1704279024951062000,9.63706201171875,0.6646359484303742,9.643881696510315,5.699473624369502
1704279024961036800,9.647036865234375,0.6093571288008243,9.460069435948133,5.863423246598243
1704279024971010800,9.6570107421875,0.6083266167093068,9.328898047727346,5.891158225741982
1704279024980985900,9.66698583984375,0.6836919465560466,9.29921836425662,5.6151610179573295
1704279024990961200,9.676961181640625,0.7958960378479212,9.451895481842756,5.065681215557456
1704279025000935200,9.68693505859375,0.9800321966022253,9.735794256532191,4.3648663578301665
1704279025010910000,9.696909912109374,1.2322551455676556,10.091541292858123,3.607916940426826
1704279025020884000,9.706884033203124,1.4714286433458328,10.455533594959974,2.9589076732605695
1704279025030859000,9.71685888671875,1.616331619799137,10.620821187794208,2.2995827637851236
1704279025040833000,9.7268330078125,1.6527467490047216,10.611011741441487,1.5441098486751317
1704279025050808000,9.73680810546875,1.543225467056036,10.465507876485585,0.949858592134714
1704279025060782000,9.746781982421876,1.2477239328563212,10.140938068711757,0.4467494957655668
1704279025070756900,9.7567568359375,0.8266682657957076,9.649547467187046,0.03884966287612915
1704279025080731000,9.76673095703125,0.3623720074236393,9.053591744816302,-0.3086263887107372
1704279025090706000,9.776705810546876,-0.13144731908533722,8.426365854912996,-0.6672223847270011
1704279025100680000,9.786679931640625,-0.5245645933846012,7.751174683263898,-1.0098866521179675
1704279025110655000,9.796655029296875,-0.7847130381196736,7.126683186760545,-1.3545757033348083
1704279025120629000,9.80662890625,-0.8945423631042242,6.6229726173669095,-1.8325526965349912
1704279025130604000,9.81660400390625,-0.8603969323962927,6.3385162087947124,-2.4468308420598506
1704279025140579000,9.8265791015625,-0.6722966192513704,6.281976575449109,-3.0892046167343854
1704279025150553000,9.836552978515625,-0.34908757843673227,6.273169584137201,-3.7001024721711873
1704279025160528000,9.84652783203125,0.03356792308092117,6.212694364908337,-4.243127399343252
1704279025170502000,9.856501953125,0.3631161037892103,6.156724640405177,-4.7580987829416985
1704279025180477000,9.866476806640625,0.5267617746353149,6.132745214402675,-5.282793688175082
1704279025190451000,9.876450927734375,0.535148494708538,5.975290214890241,-5.675820946103334
1704279025200426000,9.886426025390625,0.4316694155335426,5.6081216208398335,-5.92202799578011
1704279025210399700,9.896399658203125,0.2233551663994789,5.144281289541721,-6.103029875096678
1704279025220375000,9.906375,-0.06773907275199889,4.652966383601725,-6.289692264392972
1704279025230349000,9.91634912109375,-0.43119832742307335,4.147007450759411,-6.373399890649318
1704279025240324000,9.926323974609375,-0.8723205944240092,3.628838732424378,-6.367019834223389
1704279025250298000,9.936298095703124,-1.3559493297755718,3.0524639088362453,-6.282050809729099
1704279025260273000,9.94627294921875,-1.8546096300423145,2.4343255807518958,-6.189685245242715
1704279025270247000,9.956246826171874,-2.3312673573374747,1.875634882414341,-6.088268359294533
1704279025280222000,9.966221923828124,-2.776315309882164,1.3566326358646155,-6.040757835578918
1704279025290196200,9.9761962890625,-3.1708500497639176,0.8126011619985103,-6.021945583081245
1704279025300171300,9.986171142578126,-3.5128666669011115,0.2143406698167324,-6.0107274389743806
1704279025310146300,9.996146240234374,-3.791287302440405,-0.38588323139250275,-6.046631696048379
1704279025320120300,10.006120361328126,-3.9744554198801514,-0.931555458202958,-6.166366328975558
1704279025330095400,10.016095458984376,-4.051671930551529,-1.4227952530801296,-6.29004999178946
1704279025340069400,10.0260693359375,-4.00817765673995,-1.926181997346878,-6.408997858253121
1704279025350044200,10.036044189453126,-3.829961608749628,-2.459547115769982,-6.614079701337218
1704279025360018200,10.04601806640625,-3.602969547152519,-2.893480384582281,-6.839606951078772
1704279025369993200,10.0559931640625,-3.3284184465229507,-3.1856378690510985,-7.057527817469835
1704279025379967200,10.06596728515625,-3.0942578084707257,-3.4756039809554813,-7.102697331017255
1704279025389942300,10.0759423828125,-2.840788658836484,-3.8425206460714336,-7.032075980827212
1704279025399916300,10.085916259765625,-2.5752725130558014,-4.248219754046201,-6.909632088941335
1704279025409891300,10.095891357421875,-2.337348723077774,-4.620350354418158,-6.806442348101735
1704279025419865300,10.105865234375,-2.171870722237974,-4.966482590180635,-6.736129625469446
1704279025429840400,10.11584033203125,-2.012463419613987,-5.308061984944343,-6.683816085386276
1704279025439814400,10.125814453125,-1.8576972207941114,-5.607986596283316,-6.622279958927631
1704279025449789200,10.1357890625,-1.7246750901401042,-5.921349365866184,-6.514836652296781
1704279025459763200,10.14576318359375,-1.6613700543127954,-6.218250245469808,-6.374732600557803
1704279025469738200,10.15573828125,-1.6172319296397268,-6.507783226653933,-6.258494577574729
1704279025479713300,10.16571337890625,-1.6348504423081873,-6.70092796370685,-6.173902569699287
1704279025489687300,10.175687255859375,-1.7114171107687055,-6.786144825482368,-6.101036070930958
1704279025499662000,10.185662109375,-1.79598690681234,-6.828741273671389,-6.013983225899935
1704279025509636000,10.195635986328124,-1.837796588537842,-6.786991797700524,-5.985190846657753
1704279025519611400,10.205611328125,-1.8675893769942222,-6.60948769737184,-6.045956573265791
1704279025529585400,10.21558544921875,-1.8701731098771095,-6.29790245885551,-6.226214940738678
1704279025539560200,10.225560302734374,-1.8573929771505295,-5.931362810358404,-6.537956831121444
1704279025549534200,10.2355341796875,-1.8267559929549693,-5.5640533465325825,-6.905436390817165
1704279025559509200,10.24550927734375,-1.767467937684059,-5.215261536172032,-7.264352704828977
1704279025569483300,10.255483154296876,-1.6836466219201682,-4.903636550167203,-7.557278835582733
1704279025579458300,10.265458251953126,-1.617187359845638,-4.700987487187981,-7.782008212944865
1704279025589432300,10.275432373046876,-1.5886498321473597,-4.675771797388792,-7.900110276234149
1704279025599407000,10.285406982421875,-1.6295616882503032,-4.836413025721908,-7.86450704793334
1704279025609382100,10.295382080078125,-1.7191453669331966,-5.007327810788154,-7.69915515769124
1704279025619356200,10.305356201171875,-1.8321838632225989,-4.938033909809589,-7.67567432886064
1704279025629331500,10.31533154296875,-1.8928359003230928,-4.431450999850035,-8.09729756667614
1704279025639305500,10.325305419921875,-1.9973370160222053,-3.5561066736906763,-8.699140593519806
1704279025649280300,10.3352802734375,-2.104654212055355,-2.7024948713898658,-9.053619217345117
1704279025659254300,10.345254150390625,-2.1890471902273596,-2.071729116922617,-9.00982391476035
1704279025669229300,10.355229248046875,-2.163785469329357,-1.5561714578688144,-8.809218924829363
1704279025679203300,10.365203369140625,-2.0132523780345917,-1.1391788024634122,-8.450731649884581
1704279025689178000,10.37517822265625,-1.7950877660155296,-0.8997539602726697,-7.9833280731469385
1704279025699152100,10.385152099609375,-1.6006640950679778,-0.8834750256448983,-7.393251471942663
1704279025709127200,10.395127197265625,-1.3859505002856254,-1.052486607438326,-6.717076549953222
1704279025719101200,10.40510107421875,-1.1506932991683483,-1.3155062602281569,-6.055998074808716
1704279025729076500,10.415076416015625,-0.8706348332941531,-1.4551064540982246,-5.577219117575884
1704279025739050500,10.425050537109374,-0.5266928010523318,-1.3395359551131725,-5.415652006569505
1704279025749025300,10.435025390625,-0.16946458625793456,-0.9436375256627797,-5.521403122329712
1704279025759000300,10.445000244140624,0.08641045547425746,-0.3363029156655073,-5.789511038169264
1704279025768974300,10.454974365234374,0.24465569204892962,0.3640016544520855,-6.090506493610143
1704279025778949400,10.464949462890624,0.41010468598995353,1.2416074958026408,-6.408485232555866
1704279025788923100,10.474923095703126,0.5139999082177877,2.181122388577461,-6.60437897605598
1704279025798898200,10.484898193359374,0.4743921204507351,2.9387884298175573,-6.56364539912939
1704279025808872200,10.4948720703125,0.3400789636055007,3.8184073645561933,-6.554775863975286
1704279025818847200,10.50484716796875,0.17101535936389117,4.646833872196078,-6.49264469423294
1704279025828821200,10.5148212890625,-0.0007790946137160062,5.464232205343246,-6.323169586580991
1704279025838796300,10.52479638671875,-0.11435235536694525,6.148398710608482,-5.904241579198837
1704279025848770300,10.534770263671875,-0.11329148466978221,6.5414668850690125,-5.155745517364144
1704279025858745300,10.544745361328125,-0.1975567448088899,6.637449471008777,-4.373125067609548
1704279025868719400,10.55471923828125,-0.29593523117555304,6.511955543902516,-3.563819440025091
1704279025878694400,10.5646943359375,-0.35780338433384895,6.21472207134366,-2.7224124547809363
1704279025888668400,10.57466845703125,-0.5087713599145413,5.9917865916609765,-2.064164819148183
1704279025898643200,10.584643310546875,-0.711093090635538,5.843805522936583,-1.7665134134382008
1704279025908618200,10.5946181640625,-0.9168541481554507,5.782934582388401,-1.5609937634587288
1704279025918592300,10.60459228515625,-1.1092273163139819,5.825845503354072,-1.3221283087164162
1704279025928567300,10.6145673828125,-1.2143570853054522,5.928299331134557,-1.0340127931147813
1704279025938541000,10.624541015625,-1.2522142300128936,6.014678806948662,-0.6804770030975341
1704279025948516400,10.634516357421875,-1.2601929538071155,6.093240302488208,-0.25874562873244283
1704279025958490400,10.644490478515625,-1.2492097874999046,6.209943604895472,0.160575177359581
1704279025968465400,10.65446533203125,-1.2246680514395236,6.333293505710363,0.5227765043914318
1704279025978439400,10.664439453125,-1.263396133762598,6.39777328440547,0.8738514572530984
1704279025988414200,10.674414306640625,-1.2772422882854937,6.467161877930164,1.1770306864738465
1704279025998388200,10.68438818359375,-1.3128992926001548,6.611358167418837,1.4326701658844947
1704279026008363300,10.69436328125,-1.3866098409771919,6.71970865202248,1.6420698721677065
1704279026018337300,10.704337158203124,-1.478797126287222,6.922063700491189,1.857635699865222
1704279026028312300,10.714312255859374,-1.5651567283570766,7.061557511377334,2.136167979085445
1704279026038286300,10.724286376953126,-1.632264517468214,7.078045120319723,2.4083044197887182
1704279026048261000,10.73426123046875,-1.7642776172101498,7.110995203763246,2.725041634240746
1704279026058236400,10.744236328125,-1.921733785766363,7.109990995156765,3.050465428495407
1704279026068210400,10.75421044921875,-2.0200819317936896,7.093750054451823,3.3875457582741975
1704279026078185200,10.764185302734376,-2.063502555847168,7.065866606748104,3.6893145361751314
1704279026088159200,10.7741591796875,-2.0945815847218037,7.0624378013432025,3.92915672699511
1704279026098134300,10.78413427734375,-2.1170622965991495,7.118574699106812,4.087437071415782
1704279026108108300,10.7941083984375,-2.101397109955549,7.245086863344907,4.178573970890045
1704279026118083300,10.804083251953125,-2.0402070204555987,7.4488091085135935,4.178614887422323
1704279026128057300,10.814057373046875,-1.9337024559795855,7.809565497434138,4.067960802051425
1704279026138032000,10.8240322265625,-1.7971370997607707,8.27454739998281,3.9197032544732093
1704279026148006100,10.834006103515625,-1.6479297041118144,8.724384340369701,3.7946541485249994
1704279026157981200,10.843981201171875,-1.4921230563282966,9.136230280536413,3.712715870028734
1704279026167955200,10.853955078125,-1.3603624700427055,9.500362867891788,3.739674604102969
1704279026177930200,10.86393017578125,-1.2837538621366023,9.74271850283742,3.9103514887601136
1704279026187905300,10.8739052734375,-1.194215630030632,10.020857398825884,4.110578877550363
1704279026197879300,10.88387939453125,-1.0712065054774285,10.099179824912547,4.439501035314798
1704279026207854300,10.893854248046875,-0.9369909272551536,9.983740258830785,4.808454759216309
1704279026217828400,10.903828369140625,-0.8590940331041812,9.801291687837242,5.191031350278854
1704279026227803100,10.91380322265625,-0.7929436908483505,9.572028758698702,5.476698303684592
1704279026237777200,10.923777099609374,-0.736427438378334,9.372185400789975,5.5085231824904675
1704279026247752200,10.933752197265624,-0.6730535750985145,9.418345094418525,5.088796718207002
1704279026257726200,10.943726318359374,-0.6070365038335322,9.710048405379057,4.332580291253328
1704279026267701500,10.953701416015624,-0.46805707221031184,10.080112720870972,3.4675101063489913
1704279026277675300,10.96367529296875,-0.24274141939282415,10.37877651849389,2.7629946405380963
1704279026287650300,10.973650390625,-0.010123919129371642,10.59608539046645,2.0998335139006374
1704279026297624600,10.98362451171875,0.21119711109399794,10.641625490891933,1.5318325509041546
1704279026307599600,10.993599609375,0.4405097245931625,10.37959835627079,1.0638456213206051
1704279026317574400,11.003574462890626,0.5516887106209993,9.834103824114798,0.8493494686812162
1704279026327548400,11.01354833984375,0.5399398206382989,9.125634067720174,0.7979419375270604
1704279026337523500,11.0235234375,0.41974283089637754,8.28870218206346,0.8249649690091609
1704279026347497500,11.03349755859375,0.2310235090702772,7.4062933243453495,0.7624252184659243
1704279026357472500,11.043472412109375,0.049426001948118206,6.578135112252831,0.5020113642603159
1704279026367446500,11.053446533203125,-0.06269289527833462,5.969127016085386,0.07046995902061462
1704279026377421300,11.06342138671875,-0.14239830015599728,5.594038734951615,-0.4996311911255121
1704279026387395300,11.073395263671875,-0.12589490912258625,5.394408727532625,-1.1919278113543987
1704279026397370600,11.08337060546875,-0.03173137356983498,5.419320465949178,-1.9782073681384325
1704279026407344600,11.0933447265625,0.18147183491587637,5.55654165572822,-2.861372012659907
1704279026417319400,11.1033193359375,0.42460780658423897,5.6409963009595865,-3.736380823254585
1704279026427293400,11.11329345703125,0.663371554517746,5.653385826933383,-4.591593631011247
1704279026437268500,11.1232685546875,0.8748030588895082,5.561648623478412,-5.302442976018786
1704279026447242500,11.133242431640625,1.0173971738785506,5.334578235948086,-5.843372976738214
1704279026457217500,11.143217529296875,1.1093722777426243,4.892455230939388,-6.165465580743551
1704279026467192300,11.1531923828125,0.9542635490953921,4.256612903860211,-6.112063660901785
1704279026477166300,11.163166259765624,0.9092547790676355,3.6393951977521177,-6.46349575663805
1704279026487141400,11.173141357421875,0.480554150211811,3.0829321123361586,-6.353754109936952
1704279026497115400,11.183115478515624,0.046105917614698406,2.4676070881068703,-6.2408940389543766
1704279026507090700,11.193090576171874,-0.44330494480226185,1.897719872972369,-6.184227564358711
1704279026517064400,11.203064453125,-0.9837304665982722,1.4730512761116028,-6.15791472697258
1704279026527039500,11.21303955078125,-1.5369114616036414,1.061246252477169,-6.1733122025907035
1704279026537013500,11.223013427734376,-2.090184811067581,0.6295628084182738,-6.14608984914422
1704279026546988500,11.232988525390626,-2.5985785698413846,0.14640461318790912,-6.156306122732162
1704279026556962600,11.242962646484376,-2.9943560032606125,-0.3984761709839105,-6.165899880507588
1704279026566937300,11.252937255859376,-3.2528269067049025,-0.9650766195327043,-6.128826579654216
1704279026576911400,11.262911376953125,-3.341037105077505,-1.530052681750059,-6.246605986860394
1704279026586886400,11.272886474609376,-3.3712790986061094,-1.9470880072534082,-6.482545325022936
1704279026596861400,11.282861328125,-3.3549791211903095,-2.285064993610978,-6.683880967316031
1704279026606835500,11.29283544921875,-3.2899908084511753,-2.643002817979455,-6.826531780928373
1704279026616810500,11.302810546875,-3.256653186994791,-3.0470120731711385,-6.859985137718915
1704279026626784500,11.312784423828125,-3.224586316126585,-3.373970821908116,-6.905784765863419
1704279026636759600,11.322759521484375,-3.1984558495700357,-3.6537732671946284,-6.8982093621730805
1704279026646733600,11.332733642578125,-3.09227277213335,-3.959983826935291,-6.836632319182157
1704279026656708400,11.342708251953125,-2.917930935227871,-4.281290833520889,-6.742155461630225
1704279026666682400,11.352682373046875,-2.738994756269455,-4.5895571567475795,-6.650579586216807
1704279026676657400,11.362657470703125,-2.5435692148029805,-4.860104282432794,-6.612002895063162
1704279026686631400,11.37263134765625,-2.367258854303509,-5.142090501499176,-6.5762149578452105
1704279026696606500,11.3826064453125,-2.2061307192362842,-5.451912821996212,-6.508482899355888
1704279026706580500,11.39258056640625,-2.076712896684557,-5.731840354967117,-6.413836530455947
1704279026716555500,11.402555419921875,-1.957344028329849,-5.955259818774461,-6.323811976137757
1704279026726530600,11.412530517578125,-1.8808616771519182,-6.128235043501854,-6.21140198701024
1704279026736504600,11.422504638671874,-1.8320821564137935,-6.276955532416701,-6.107481593808531
1704279026746479600,11.432479736328125,-1.8078969787061214,-6.38960225290954,-6.044817924624681
1704279026756453600,11.44245361328125,-1.8017619830824434,-6.424775857621431,-6.016191549599171
1704279026766428400,11.452428466796874,-1.8332957699872552,-6.36282296705544,-6.0987786473929875
1704279026776402400,11.46240234375,-1.8521322801433502,-6.165567872074246,-6.285636267000436
1704279026786377500,11.47237744140625,-1.8546072919547556,-5.8520338375777,-6.566316664165258
1704279026796351500,11.4823515625,-1.8175941968560219,-5.503678665068746,-6.908498116475343
1704279026806326300,11.492326171875,-1.7340367927253246,-5.14240029810071,-7.246184595453739
1704279026816300300,11.50230029296875,-1.6085316135726868,-4.797172317701578,-7.559350381159782
1704279026826275600,11.512275634765626,-1.4160263434670866,-4.52562390601933,-7.867319767266512
1704279026836249600,11.52224951171875,-1.2262442147150634,-4.342052468475699,-8.18444744234085
1704279026846224600,11.532224609375,-1.0725767709173262,-4.349759389591217,-8.398504034519195
1704279026856199400,11.542199462890625,-0.9624059390187263,-4.379177207255363,-8.748841905277967
1704279026866173400,11.55217333984375,-0.9579332505840807,-4.077136042153835,-9.247372441685199
1704279026876148500,11.5621484375,-1.1188531497281045,-3.4748961249470707,-9.810831669598818
1704279026886122500,11.57212255859375,-1.2300690337002276,-2.9305764817893505,-10.1826717625916
1704279026896097500,11.58209765625,-1.3153835106313227,-2.4909201591551304,-10.35199489455223
1704279026906071600,11.592071533203125,-1.4132348130524157,-2.100676978987455,-10.248520491552352
1704279026916046300,11.60204638671875,-1.5112673172593116,-1.8126666773259639,-9.788844878718256
1704279026926020400,11.612020263671875,-1.5096914462447166,-1.6887597271502017,-9.02142433618307
1704279026935995600,11.62199560546875,-1.420666424357891,-1.6563374669730662,-8.166538860684632
1704279026945969700,11.6319697265625,-1.3243804715573786,-1.6455647285461426,-7.401881937643886
1704279026955944400,11.6419443359375,-1.18909054210186,-1.5986282053261995,-6.753828948289155
1704279026965918500,11.65191845703125,-0.993895302259922,-1.4173440019369123,-6.245551509371399
1704279026975893500,11.6618935546875,-0.8017091811060905,-1.1019044260799884,-5.921472115463018
1704279026985868500,11.67186865234375,-0.6212585059314966,-0.6741279263317584,-5.829684643125534
1704279026995842600,11.681842529296874,-0.4819371290028095,-0.07015022554695606,-5.908327387207746
1704279027005817300,11.6918173828125,-0.4355950645446777,0.6517085892528295,-6.052854516085982
1704279027015791400,11.701791259765624,-0.38260757072269913,1.451371943745017,-6.235996914562582
1704279027025766400,11.711766357421874,-0.34343875889480113,2.235461297008395,-6.224545546221733
1704279027035740400,11.721740478515626,-0.375617857965827,3.0511352905809876,-6.130010821002721
1704279027045715500,11.731715576171876,-0.5079945303231478,3.801903973522782,-5.952921146693825
1704279027055689500,11.741689453125,-0.6996124962002038,4.405706902262568,-5.710264482975005
1704279027065664500,11.75166455078125,-0.8929396040827036,4.9465007093816995,-5.403376462364196
1704279027075638500,11.761638427734376,-1.0177285977900028,5.399070289602875,-4.992099846518039
1704279027085613600,11.771613525390626,-1.0970178230822085,5.8049687195420265,-4.541079833826422
1704279027095587600,11.781587646484375,-1.1211954020053148,6.192573367899656,-4.130519841817021
1704279027105562400,11.791562255859375,-1.0821060851544142,6.47360272463262,-3.7070039221227167
1704279027115537400,11.801537353515625,-1.0720739359617233,6.586517740672827,-3.228470464083552
1704279027125511400,11.811511474609375,-1.1013105518400668,6.606067659795284,-2.765357862538099
1704279027135486500,11.821486572265625,-1.1461048023343086,6.579714490398764,-2.3815607897698876
1704279027145460500,11.83146044921875,-1.173896480101347,6.583410422307253,-2.1010294456869363
1704279027155435500,11.841435546875,-1.1924351763546466,6.608102380493283,-1.813760902303457
1704279027165409500,11.851409423828125,-1.2208639829814434,6.607936960798502,-1.5052268680512904
1704279027175384600,11.861384521484375,-1.2738824564635753,6.572558188903331,-1.1967138765871523
1704279027185358600,11.871358642578125,-1.3414847510933876,6.536124354997277,-0.8923457298427819
1704279027195333400,11.88133349609375,-1.4024480461001396,6.547343083626031,-0.5964484743237495
1704279027205307400,11.891307373046875,-1.4656255100250244,6.599272008305788,-0.29267420181930065
1704279027215282400,11.901282470703125,-1.5679565882086752,6.645622840592265,0.016392331874370576
1704279027225256400,11.91125634765625,-1.6721826863586902,6.805131265503167,0.24964754551947116
1704279027235231500,11.9212314453125,-1.7063690335988997,6.9390709493935105,0.5008224467366934
1704279027245206500,11.93120654296875,-1.7281892357408999,7.030328844898938,0.7538719096541404
1704279027255180300,11.94118017578125,-1.771796906799078,7.165419452390075,1.0132798016875981
1704279027265155600,11.951155517578124,-1.8757120393037794,7.3110589264243835,1.2844652252763509
1704279027275129600,11.961129638671874,-1.9084733221769332,7.4445163797557345,1.5843775616556406
1704279027285104600,11.971104736328124,-1.9288801503896713,7.564276147124171,1.91373869535923
1704279027295078100,11.981078125,-1.9913783998787402,7.703025861644744,2.2324854960680005
1704279027305053000,11.991052978515626,-2.068392665976286,7.812074849906563,2.5764807198017836
1704279027315027000,12.00102685546875,-2.0928081453084943,7.868864074099063,2.9674867010354995
1704279027325002200,12.011002197265626,-2.1047358989894387,7.909539783358573,3.349925344932079
1704279027334976300,12.020976318359375,-2.097001505345106,7.915598937267065,3.698694943460822
1704279027344951000,12.030950927734375,-2.0574340495884416,7.937590988844633,3.9671091487705703
1704279027354926000,12.040926025390625,-1.971910313820839,8.058547272521256,4.139017036527395
1704279027364900000,12.050900146484375,-1.874767451930046,8.246412023344636,4.242369858974218
1704279027374875100,12.060875244140625,-1.7397781128562986,8.488955289816856,4.289666447678208
1704279027384849200,12.07084912109375,-1.5614695642769336,8.778999727654456,4.299273064935207
1704279027394824000,12.080823974609375,-1.3691221150815487,9.148985717213153,4.254406918248534
1704279027404798000,12.0907978515625,-1.1726444342136382,9.552218142813443,4.2169121771126985
1704279027414773000,12.10077294921875,-1.0131447771310806,9.923993938398361,4.271842037174105
1704279027424747000,12.1107470703125,-0.8457692721068859,10.172587590950727,4.4304567281156775
1704279027434722300,12.120722412109375,-0.7438005974948406,10.327778152662516,4.661920966690778
1704279027444696000,12.130696044921875,-0.6320458574056625,10.352586430704593,5.023616682288051
1704279027454671000,12.140671142578125,-0.4457634073376655,10.110568649411201,5.444831923824548
1704279027464646100,12.150646240234375,-0.30727848123311996,9.83344915959835,5.797789037171006
1704279027474620200,12.1606201171875,-0.2133200945973396,9.59959481101632,6.0577259215146295
1704279027484595000,12.170594970703124,-0.14691138453311287,9.484293192100525,6.063952248683571
1704279027494569000,12.18056884765625,-0.11152560750842094,9.53476782631874,5.732834042179584
1704279027504544000,12.1905439453125,-0.04783610697474796,9.734874219077826,5.117219095093011
1704279027514518000,12.20051806640625,0.1332329877925571,9.932211147123574,4.552872562950849
1704279027524493300,12.210493408203124,0.3634726621419191,10.024861373770236,4.146044743207097
1704279027534467300,12.22046728515625,0.6413911933779716,10.090963785231112,3.769173670309782
1704279027544442000,12.230442138671876,0.907567848894,10.050762707746028,3.363872037220001
1704279027554416000,12.240416015625,1.120482285299897,9.933354471939802,2.8919144504398107
1704279027564391200,12.25039111328125,1.3118144199728965,9.658888126984237,2.384602641683817
1704279027574366200,12.2603662109375,1.4437620532631874,9.345659797435998,1.874657561814785
1704279027584340000,12.270340087890625,1.467192613211274,8.917621431881189,1.398876032832265
1704279027594315000,12.28031494140625,1.3971353266447781,8.380891220939159,0.9528840774357318
1704279027604289000,12.2902890625,1.205345438266918,7.829280251729488,0.48249125575423235
1704279027614264000,12.30026416015625,0.9141653474628925,7.282264793616533,-0.025792028382420538
1704279027624238000,12.310238037109375,0.5863806692957878,6.917113969129324,-0.6589876403450966
1704279027634213000,12.320213134765625,0.29190555553436276,6.811753313991427,-1.4883675031870602
1704279027644187100,12.330187255859375,0.06614511809144169,6.878751212987304,-2.409634207087755
1704279027654162200,12.340162109375,-0.023486126060225068,7.056045469957589,-3.3121395118951797
1704279027664136200,12.35013623046875,-0.0313444018125534,7.444564895072579,-4.307767921558022
1704279027674111200,12.360111328125,-0.0003922324542887509,7.758221094644069,-5.3227545271635055
1704279027684085200,12.370085205078125,-0.0021416973369661717,7.877301647576689,-6.263368321090936
1704279027694060000,12.38006005859375,-0.05805939025878906,7.654428711736202,-6.898861104080081
1704279027704035000,12.39003515625,-0.16949498139619826,7.016593165013194,-7.234067456680536
1704279027714009000,12.400009033203125,-0.35662265011668204,6.186130183109641,-7.425039525869488
1704279027723984100,12.409984130859375,-0.648083969014883,5.263444260060787,-7.391313781878352
1704279027733958000,12.4199580078125,-0.9276081088166683,4.290231680345535,-7.401980721843242
1704279027743933200,12.42993310546875,-1.2011854690432548,3.4110984832972284,-7.4660098341614
1704279027753907200,12.4399072265625,-1.5977344713568686,2.729445422157645,-7.590199108409881
1704279027763882200,12.44988232421875,-2.027567319113016,2.0117980875730512,-7.7146110854983325
1704279027773856300,12.459856201171876,-2.391386602735519,1.2771481802612543,-7.773500496840477
1704279027783831000,12.4698310546875,-2.736905675035715,0.6612742899775504,-7.794231150180101
1704279027793805000,12.47980517578125,-3.0326050698950886,0.13847849636375903,-7.8384893941015
1704279027803780000,12.489780029296876,-3.2299861293435095,-0.40791736854612826,-7.8309893937349315
1704279027813755100,12.499755126953126,-3.2604537483215332,-1.1947183188557624,-7.691164158937335
1704279027823729200,12.509729248046876,-3.413247770285606,-1.3079688504606484,-7.851904755991697
1704279027833704000,12.519703857421876,-3.465813823825121,-1.5302198550105095,-8.245056517082451
1704279027843678000,12.529677978515625,-3.214304576086998,-2.044080062496662,-8.52656693533063
1704279027853653200,12.5396533203125,-2.865336824637651,-2.508791331410408,-8.544386669659614
1704279027863627300,12.549627197265625,-2.5965070242643353,-2.775876918464899,-8.502790922945737
1704279027873602000,12.55960205078125,-2.4611399379193784,-3.088746936094761,-8.246058387601375
1704279027883576000,12.569576171875,-2.4500261309698224,-3.52737859185636,-7.665615291661024
1704279027893551000,12.579551025390625,-1.9778617695711551,-3.7445454250097274,-8.08181650442779
1704279027903525000,12.589525146484375,-1.8642460579156874,-3.8726018960803743,-7.747773350387811
1704279027913500200,12.599500244140625,-1.7071311040125787,-4.221849048992992,-7.460007378876209
1704279027923474200,12.60947412109375,-1.5736230895377694,-4.5678936064720155,-7.18327484255433
1704279027933449000,12.619448974609375,-1.4786146093271673,-4.881896427524089,-6.866453456950187
1704279027943424000,12.629424072265625,-1.405793703266233,-5.221995228341221,-6.642478697347641
